"aX,aY,aZ,gX,gY,gZ"
"-0.053833,-0.810669,-0.646362,4.028320,12.023925,-15.563964"
"-0.045288,-0.826416,-0.678467,5.249023,4.699707,-14.099120"
"-0.057007,-0.791870,-0.657227,9.155273,-4.943848,-11.535644"
"-0.080444,-0.736938,-0.598022,4.943848,-8.483887,-15.624999"
"-0.112183,-0.813232,-0.463135,4.638672,-8.789063,-23.132322"
"-0.103394,-0.775513,-0.509888,9.826660,9.765625,-18.981934"
"-0.059326,-0.834229,-0.639771,12.023925,8.972168,-20.141600"
"-0.052490,-0.869751,-0.648193,16.967773,6.530761,-16.113281"
"-0.092773,-0.810059,-0.680542,32.287598,2.807617,-6.958007"
"-0.126099,-0.783936,-0.593262,34.851074,-7.629394,-6.835937"
"-0.124512,-0.772827,-0.549316,23.925779,-5.493164,-11.901855"
"-0.119995,-0.760986,-0.545166,19.165039,0.488281,-14.648437"
"-0.101440,-0.788330,-0.649658,13.305663,12.634276,-19.104004"
"-0.087402,-0.869873,-0.755249,7.141113,13.427733,-19.653320"
"-0.088501,-0.883057,-0.756470,13.671874,2.441406,-9.765625"
"-0.112793,-0.769287,-0.672852,20.141600,-2.868652,-3.967285"
"-0.145996,-0.656250,-0.603760,18.432617,-5.493164,-5.065917"
"-0.140381,-0.683838,-0.581055,12.451171,0.549316,-16.601562"
"-0.130249,-0.783447,-0.620483,11.474608,11.901855,-18.005371"
"-0.110352,-0.826782,-0.743774,8.605957,13.427733,-15.441894"
"-0.112183,-0.818481,-0.770996,5.187988,7.324218,-6.591796"
"-0.128906,-0.780640,-0.729736,11.108397,-2.746582,0.793457"
"-0.154663,-0.700562,-0.626221,13.610839,-3.417969,1.098633"
"-0.171387,-0.660645,-0.644897,15.808105,5.981445,-4.211426"
"-0.169189,-0.673218,-0.711914,9.948730,9.277344,-12.573241"
"-0.134888,-0.723999,-0.900024,-20.324705,-13.122558,-26.855467"
"-0.132324,-0.925903,-0.723633,-26.123045,-28.869627,-29.968260"
"-0.152100,-0.799072,-0.629028,-7.263183,-21.606443,-10.070800"
"-0.158569,-0.754883,-0.670776,0.976562,-13.122558,-8.728027"
"-0.155273,-0.765381,-0.576050,5.065917,-12.756347,-11.230468"
"-0.134888,-0.787964,-0.686646,9.094238,1.647949,-12.573241"
"-0.121094,-0.828979,-0.744507,3.417969,-3.845215,-13.549804"
"-0.133057,-0.822998,-0.714722,4.028320,-15.563964,-9.765625"
"-0.142700,-0.798828,-0.685303,4.150391,-17.456055,-8.850098"
"-0.159546,-0.774048,-0.640869,0.671387,-17.150879,-8.422852"
"-0.172852,-0.730591,-0.612183,-10.864257,-13.610839,-10.864257"
"-0.163086,-0.747070,-0.626953,-22.644041,-10.681151,-16.723633"
"-0.141724,-0.817993,-0.661011,-23.803709,-15.991210,-17.578125"
"-0.129028,-0.839111,-0.642578,-19.836426,-18.127441,-15.136718"
"-0.123169,-0.831299,-0.656128,-11.657714,-18.737793,-9.155273"
"-0.132690,-0.829712,-0.627319,-10.864257,-22.216795,-4.943848"
"-0.160034,-0.792969,-0.541748,-8.666992,-16.723633,-2.624511"
"-0.167236,-0.754761,-0.518677,-3.845215,-10.437011,-2.929687"
"-0.151611,-0.812866,-0.544556,-3.417969,-0.915527,-6.958007"
"-0.145874,-0.839111,-0.566528,-13.183593,1.281738,-6.530761"
"-0.142212,-0.790894,-0.643799,-23.132322,-6.103515,-7.446289"
"-0.119263,-0.869385,-0.652466,-27.038572,-11.291503,-8.911133"
"-0.146606,-0.855103,-0.573364,-21.850584,-16.601562,-3.051758"
"-0.167358,-0.802490,-0.543213,-9.643555,-12.023925,0.732422"
"-0.162842,-0.798706,-0.528687,-4.882812,-9.887695,-0.976562"
"-0.131104,-0.874268,-0.555176,-5.920410,-8.117676,-1.586914"
"-0.104736,-0.905029,-0.601562,-19.958496,-8.972168,4.638672"
"-0.106079,-0.902832,-0.584839,-19.714355,-13.183593,11.840819"
"-0.125000,-0.855957,-0.542358,-16.357422,-14.160155,14.587401"
"-0.121338,-0.836914,-0.519287,-7.629394,-14.160155,16.662598"
"-0.115967,-0.841431,-0.523437,-8.728027,-13.366698,17.211914"
"-0.108765,-0.819580,-0.529419,-17.517090,-13.366698,17.272949"
"-0.096558,-0.810913,-0.530396,-18.737793,-13.488769,16.662598"
"-0.078369,-0.816284,-0.543823,-22.766111,-15.319823,15.075683"
"-0.077881,-0.807495,-0.531860,-30.883787,-18.554687,13.732909"
"-0.084229,-0.792603,-0.496460,-31.616209,-17.700195,12.878417"
"-0.075562,-0.804687,-0.515869,-30.334471,-13.610839,10.375976"
"-0.049072,-0.902710,-0.517334,-36.621094,-15.624999,8.666992"
"-0.050293,-0.914673,-0.487061,-34.484863,-19.714355,15.319823"
"-0.061768,-0.810669,-0.435425,-34.790039,-18.615723,17.456055"
"-0.053955,-0.788574,-0.445190,-39.062500,-17.395020,14.160155"
"-0.044556,-0.849609,-0.427002,-42.297359,-17.272949,8.850098"
"-0.040771,-0.854858,-0.415771,-37.170410,-15.441894,9.887695"
"-0.031616,-0.861572,-0.393555,-35.766602,-10.192870,10.192870"
"-0.017090,-0.940796,-0.415039,-36.621094,-7.141113,11.108397"
"-0.011841,-0.887817,-0.457764,-28.137205,-6.164550,17.211914"
"-0.018921,-0.813965,-0.449463,-16.662598,-9.582520,17.761230"
"-0.032837,-0.772949,-0.405884,-12.939452,-10.009766,13.610839"
"-0.027832,-0.853882,-0.372559,-9.399414,-10.742187,5.249023"
"-0.000732,-0.959961,-0.365234,-6.652832,-9.887695,4.089355"
"0.011963,-1.002441,-0.369629,-7.873535,-6.591796,11.474608"
"0.004517,-1.000000,-0.330322,-8.422852,-5.004883,17.700195"
"0.006592,-0.803223,-0.364868,-5.615234,4.516602,28.869627"
"0.017578,-0.796143,-0.426025,-8.056641,5.859375,19.836426"
"0.024414,-0.847168,-0.406982,-10.437011,-2.685547,11.474608"
"0.035767,-0.893677,-0.380127,-9.948730,-2.258301,12.145995"
"0.055664,-0.944336,-0.379150,-9.887695,-1.220703,13.061522"
"0.062744,-0.958374,-0.377441,-12.634276,2.807617,18.798828"
"0.057373,-0.903198,-0.389160,-10.742187,5.310058,24.230955"
"0.033813,-0.796387,-0.372070,-15.808105,3.417969,17.639160"
"0.042603,-0.806030,-0.374023,-19.226074,4.760742,12.084960"
"0.071167,-0.938232,-0.427490,-17.639160,5.554199,4.516602"
"0.067383,-0.963623,-0.404175,-2.197266,-3.723144,8.666992"
"0.050049,-0.917358,-0.314087,2.990722,-6.958007,11.169433"
"0.044800,-0.887817,-0.254150,1.220703,-6.591796,10.742187"
"0.056763,-0.895020,-0.264160,-9.643555,2.380371,8.178711"
"0.077271,-0.871704,-0.317749,-9.826660,9.521484,8.422852"
"0.080200,-0.833130,-0.359375,-9.094238,10.864257,7.812500"
"0.088989,-0.864502,-0.410767,-3.967285,7.690429,5.187988"
"0.087891,-0.896362,-0.428223,8.239746,-2.807617,5.615234"
"0.072632,-0.878906,-0.357788,15.808105,-10.498046,6.774902"
"0.063965,-0.854370,-0.283691,23.498533,-16.723633,6.042480"
"0.058960,-0.848267,-0.265259,12.390136,-9.094238,4.943848"
"0.060791,-0.846924,-0.268066,-6.042480,5.554199,5.065917"
"0.079712,-0.858032,-0.361816,-8.911133,13.183593,5.920410"
"0.095703,-0.885742,-0.496094,-14.526366,18.249512,8.056641"
"0.091553,-0.895020,-0.487305,-5.310058,4.821777,12.573241"
"0.066040,-0.857666,-0.392822,6.469726,-0.427246,15.441894"
"0.041016,-0.769287,-0.323853,24.047850,-3.601074,15.563964"
"0.046387,-0.780151,-0.304321,15.808105,1.586914,5.615234"
"0.063843,-0.849854,-0.363159,-3.540039,15.319823,0.000000"
"0.112427,-0.976074,-0.503540,-3.601074,17.639160,3.417969"
"0.120605,-0.931274,-0.477905,15.319823,12.817382,18.371582"
"0.099487,-0.862671,-0.458862,24.169920,10.009766,27.709959"
"0.051758,-0.717407,-0.409058,12.329101,5.310058,18.066406"
"0.039185,-0.732422,-0.354858,6.225585,5.310058,8.789063"
"0.092407,-0.859985,-0.440063,0.183105,14.099120,-3.417969"
"0.113525,-0.922974,-0.510742,3.601074,19.226074,-0.183105"
"0.129272,-0.961304,-0.553345,10.498046,17.150879,6.347656"
"0.102661,-0.849243,-0.488892,19.897461,10.437011,18.737793"
"0.061646,-0.751709,-0.402954,9.399414,6.347656,17.150879"
"0.051514,-0.736816,-0.384644,-7.934570,5.737304,3.906250"
"0.062012,-0.777466,-0.364136,-12.939452,5.859375,-3.234863"
"0.111572,-0.875977,-0.412109,-16.296387,10.559081,-10.864257"
"0.139282,-0.915039,-0.484741,-5.310058,15.808105,-4.211426"
"0.136353,-0.905884,-0.535156,6.042480,8.239746,8.178711"
"0.087280,-0.784302,-0.444336,2.746582,4.272461,11.230468"
"0.054077,-0.707153,-0.369141,-9.521484,-1.770019,3.356933"
"0.046265,-0.732178,-0.336426,-20.812986,-3.723144,-12.573241"
"0.062134,-0.848389,-0.340698,-23.864744,-0.610352,-16.784668"
"0.096191,-0.887085,-0.395996,-23.925779,8.666992,-13.977050"
"0.116943,-0.877441,-0.446899,-21.118162,15.930175,-6.347656"
"0.116943,-0.824219,-0.557739,-3.417969,6.530761,-2.624511"
""
"-0.048096,-0.779907,-0.623657,11.535644,3.295898,-9.887695"
"-0.041016,-0.816284,-0.630615,5.554199,7.324218,-11.413573"
"-0.024536,-0.794067,-0.650391,5.676269,7.568359,-8.544922"
"-0.010864,-0.777344,-0.677856,8.300781,6.958007,-7.934570"
"-0.031616,-0.756470,-0.666992,15.747069,2.014160,-5.920410"
"-0.062378,-0.719849,-0.633179,15.686034,-1.098633,-5.737304"
"-0.069092,-0.701904,-0.619873,4.089355,-1.342773,-8.850098"
"-0.047974,-0.740601,-0.603882,0.610352,-0.549316,-11.657714"
"-0.042236,-0.740112,-0.648193,3.417969,5.004883,-12.939452"
"-0.055176,-0.719849,-0.724121,8.666992,5.615234,-13.488769"
"-0.065430,-0.729980,-0.703857,13.854980,-3.906250,-14.465331"
"-0.073242,-0.778931,-0.604126,16.235352,-6.530761,-14.099120"
"-0.074097,-0.786133,-0.579956,17.028809,-2.624511,-10.559081"
"-0.083496,-0.741699,-0.605957,10.925292,5.493164,-8.483887"
"-0.085571,-0.649414,-0.716919,5.065917,7.324218,-11.047362"
"-0.068604,-0.781494,-0.733032,-2.624511,0.305176,-22.888182"
"-0.073486,-0.787476,-0.679443,16.174316,-2.136230,-13.793944"
"-0.084961,-0.754517,-0.663208,28.747557,-1.892090,-7.873535"
"-0.099121,-0.763794,-0.602295,29.663084,-0.915527,-7.873535"
"-0.110962,-0.716309,-0.661133,24.597166,5.371093,-6.225585"
"-0.115601,-0.688232,-0.681519,17.333984,4.333496,-8.666992"
"-0.105591,-0.666626,-0.713623,13.244628,6.103515,-13.671874"
"-0.087646,-0.704590,-0.753052,13.305663,6.469726,-15.441894"
"-0.094238,-0.724121,-0.702881,19.592285,2.563476,-13.916015"
"-0.102539,-0.705322,-0.676514,25.573729,2.868652,-10.375976"
"-0.117554,-0.670898,-0.673218,23.193357,8.728027,-12.207030"
"-0.116943,-0.696411,-0.736938,22.216795,11.291503,-13.122558"
"-0.121948,-0.669067,-0.804810,23.925779,10.803222,-12.023925"
"-0.116577,-0.670776,-0.823120,18.371582,2.868652,-13.549804"
"-0.122559,-0.632690,-0.826416,16.845703,-1.281738,-13.977050"
"-0.144653,-0.621338,-0.780151,14.953612,-6.530761,-17.700195"
"-0.146606,-0.696655,-0.738403,5.615234,-4.577637,-22.583006"
"-0.143066,-0.727295,-0.744995,-6.958007,0.976562,-20.629881"
"-0.133911,-0.697632,-0.770264,-14.770507,3.295898,-16.479492"
"-0.138184,-0.658813,-0.828369,-14.099120,2.258301,-16.357422"
"-0.148926,-0.640991,-0.842407,-8.361816,-5.859375,-17.211914"
"-0.154297,-0.640869,-0.836670,-12.634276,-15.747069,-20.812986"
"-0.151489,-0.670410,-0.808472,-26.489256,-25.390623,-25.634764"
"-0.144287,-0.682617,-0.777710,-43.212887,-29.296873,-32.470703"
"-0.152832,-0.875122,-0.667725,-57.250973,-28.625486,-35.339355"
"-0.159058,-0.800293,-0.706909,-26.977537,-12.939452,-12.939452"
"-0.168213,-0.680908,-0.762939,-9.277344,-13.916015,-13.732909"
"-0.181885,-0.660034,-0.707764,-8.178711,-14.160155,-15.991210"
"-0.173096,-0.682739,-0.719604,-15.258788,-15.869140,-22.399900"
"-0.162964,-0.727173,-0.695435,-20.751951,-23.620604,-27.343748"
"-0.134277,-0.888062,-0.633667,-27.709959,-21.057127,-21.362303"
"-0.142090,-0.893799,-0.635498,-26.489256,-16.296387,-12.634276"
"-0.175049,-0.692993,-0.684692,-22.399900,-7.812500,-0.122070"
"-0.187744,-0.659546,-0.696289,-32.470703,-10.070800,-9.948730"
"-0.166992,-0.743286,-0.659180,-35.095215,-15.502929,-17.700195"
"-0.142578,-0.842651,-0.660889,-33.203125,-15.869140,-16.967773"
"-0.138428,-0.876709,-0.643311,-31.127928,-18.493652,-9.338379"
"-0.155640,-0.843750,-0.510254,-28.442381,-19.226074,0.427246"
"-0.170776,-0.786499,-0.493774,-25.573729,-6.652832,5.920410"
"-0.188232,-0.702271,-0.545898,-22.705076,-5.981445,-2.746582"
"-0.167236,-0.797119,-0.524658,-22.033689,-7.629394,-7.690429"
"-0.139893,-0.866699,-0.551270,-23.071287,-2.319336,-7.995605"
"-0.128418,-0.883301,-0.588135,-30.456541,4.089355,-2.014160"
"-0.140747,-0.888428,-0.591797,-28.442381,2.868652,1.464844"
"-0.156738,-0.807739,-0.585571,-12.207030,0.122070,7.446289"
"-0.155273,-0.800049,-0.590332,1.098633,-4.882812,6.530761"
"-0.159546,-0.830811,-0.486938,7.263183,-1.281738,6.530761"
"-0.158691,-0.814331,-0.511108,8.789063,7.751464,8.178711"
"-0.140991,-0.812988,-0.642944,2.685547,11.047362,7.507324"
"-0.130371,-0.853882,-0.618652,-7.873535,-8.239746,5.310058"
"-0.139038,-0.864136,-0.522827,-13.122558,-13.183593,7.934570"
"-0.143677,-0.767822,-0.521973,-21.728514,-13.183593,12.573241"
"-0.136841,-0.804443,-0.516602,-35.522461,-15.319823,6.774902"
"-0.134766,-0.827637,-0.495850,-40.588375,-16.296387,4.089355"
"-0.122314,-0.870605,-0.516235,-50.476070,-15.930175,3.845215"
"-0.101807,-0.947510,-0.533447,-53.222652,-19.226074,5.065917"
"-0.110596,-0.936401,-0.474365,-47.668453,-25.329588,12.756347"
"-0.121948,-0.878906,-0.447632,-40.466305,-24.108885,18.310547"
"-0.122437,-0.792603,-0.419067,-47.485348,-19.287109,12.145995"
"-0.103882,-0.825317,-0.409546,-52.490231,-15.686034,7.995605"
"-0.067627,-0.897095,-0.469604,-56.884762,-9.155273,4.455566"
"-0.058594,-0.922729,-0.502808,-49.377438,-12.695312,7.873535"
"-0.063843,-0.931030,-0.475586,-39.306641,-22.583006,13.732909"
"-0.077148,-0.898560,-0.366455,-31.433104,-25.329588,17.395020"
"-0.081055,-0.851807,-0.279419,-22.338865,-21.850584,20.141600"
"-0.064819,-0.897705,-0.262817,-32.287598,-12.817382,15.747069"
"-0.054443,-0.910034,-0.271118,-39.611816,-4.028320,15.197753"
"-0.028809,-0.915283,-0.376953,-42.114254,-0.488281,15.747069"
"-0.025146,-0.937622,-0.426270,-38.513184,-4.943848,17.028809"
"-0.033081,-0.937256,-0.374634,-22.155760,-16.601562,19.775391"
"-0.039551,-0.901367,-0.282593,-17.517090,-16.845703,20.935057"
"-0.031372,-0.847534,-0.271362,-11.718749,-10.742187,20.202635"
"-0.016968,-0.858887,-0.273438,-14.709472,-4.882812,14.160155"
"-0.001343,-0.900635,-0.307251,-25.512693,3.051758,9.948730"
"0.021362,-1.004639,-0.431763,-23.986814,1.525879,14.892577"
"-0.003418,-0.967041,-0.398560,-18.493652,-4.455566,19.470215"
"-0.014404,-0.871582,-0.300049,-12.084960,-10.498046,22.216795"
"-0.010620,-0.872070,-0.273926,-12.451171,-6.164550,15.563964"
"0.012085,-0.931152,-0.281616,-15.747069,-1.586914,11.474608"
"0.022583,-0.970581,-0.303711,-18.554687,-1.281738,11.535644"
"0.033813,-1.008423,-0.312134,-25.085447,-2.929687,13.305663"
"0.039551,-1.035034,-0.306519,-22.644041,-5.798339,18.798828"
"0.028320,-1.005615,-0.232056,-7.568359,-7.202148,27.343748"
"0.010376,-0.862915,-0.152100,-4.638672,-4.821777,28.442381"
"0.021484,-0.856689,-0.181885,-14.709472,5.432128,19.897461"
"0.035889,-0.909668,-0.225220,-18.371582,11.108397,12.512206"
"0.066895,-0.979370,-0.283936,-18.615723,7.507324,14.770507"
"0.071533,-0.977417,-0.279419,-16.601562,4.028320,17.944336"
"0.052368,-0.903931,-0.227661,-4.699707,-0.671387,23.742674"
"0.052246,-0.888916,-0.218506,13.916015,-0.244141,22.460936"
"0.067627,-0.869629,-0.253418,23.681639,-0.793457,20.263670"
"0.094116,-0.905518,-0.241089,11.169433,-4.455566,13.671874"
"0.113281,-0.979736,-0.238037,-17.517090,0.732422,13.305663"
"0.114014,-0.981445,-0.263794,-17.822266,3.784179,19.042969"
"0.090576,-0.841797,-0.244995,-8.972168,3.967285,26.794432"
"0.087402,-0.818481,-0.222778,-13.610839,5.432128,21.484373"
"0.097656,-0.842163,-0.226440,-6.713867,8.972168,15.197753"
"0.127441,-0.865723,-0.238647,-3.662109,10.009766,14.099120"
"0.144775,-0.872192,-0.231812,2.075195,10.131835,13.793944"
"0.147095,-0.864502,-0.241821,6.835937,9.765625,15.014647"
"0.134766,-0.811157,-0.258179,10.803222,7.446289,15.441894"
"0.109131,-0.733398,-0.195435,15.869140,2.990722,12.573241"
"0.110840,-0.754150,-0.180542,5.432128,9.399414,2.807617"
"0.128174,-0.887573,-0.172607,4.272461,21.057127,1.159668"
"0.142212,-0.919067,-0.252930,5.249023,26.672361,4.760742"
"0.142456,-0.889648,-0.356079,7.507324,27.282713,11.840819"
"0.136108,-0.887207,-0.347900,19.958496,16.601562,17.028809"
"0.096436,-0.769165,-0.269043,29.174803,13.427733,18.981934"
"0.076050,-0.693726,-0.220825,41.137691,14.526366,12.084960"
"0.081177,-0.789185,-0.246094,37.780762,22.583006,-1.342773"
"0.100220,-0.877441,-0.301025,27.954100,32.043457,-4.882812"
"0.142090,-0.976929,-0.452393,24.536131,33.386230,-0.488281"
"0.126831,-0.880371,-0.473755,35.278320,24.230955,13.244628"
""
"-0.021240,-0.803467,-0.781494,4.760742,24.353025,-22.155760"
"-0.031250,-0.795654,-0.875244,8.972168,20.080564,-18.798828"
"-0.050781,-0.785278,-0.811646,22.705076,5.187988,-14.038085"
"-0.060547,-0.769531,-0.755737,27.160643,0.732422,-10.498046"
"-0.073242,-0.702881,-0.677490,16.845703,5.676269,-12.268065"
"-0.069946,-0.693115,-0.671021,11.718749,9.277344,-15.197753"
"-0.057007,-0.756714,-0.753174,7.019042,14.465331,-19.409180"
"-0.053589,-0.770508,-0.791504,11.291503,12.268065,-15.991210"
"-0.055542,-0.750244,-0.795044,18.676758,5.981445,-10.070800"
"-0.092773,-0.634033,-0.717041,20.263670,3.112793,-8.605957"
"-0.093262,-0.643799,-0.664795,9.521484,1.342773,-16.052246"
"-0.092529,-0.697144,-0.672119,3.173828,5.493164,-21.240232"
"-0.108154,-0.716553,-0.692871,8.361816,7.751464,-18.981934"
"-0.095703,-0.727051,-0.727661,9.887695,8.972168,-18.310547"
"-0.075806,-0.740234,-0.808594,13.366698,9.033203,-14.953612"
"-0.097046,-0.699463,-0.798218,20.568846,-0.915527,-10.498046"
"-0.138306,-0.635864,-0.680176,8.544922,-3.845215,-15.686034"
"-0.135010,-0.668457,-0.665405,3.112793,-0.610352,-18.066406"
"-0.118652,-0.667969,-0.707764,-0.183105,4.455566,-19.897461"
"-0.111938,-0.678467,-0.735107,0.976562,5.310058,-20.263670"
"-0.098511,-0.681396,-0.768921,11.169433,2.319336,-18.249512"
"-0.091919,-0.696655,-0.791138,13.610839,0.549316,-16.784668"
"-0.128174,-0.614014,-0.747681,11.169433,-8.666992,-14.099120"
"-0.144287,-0.587769,-0.701172,8.605957,-15.258788,-19.287109"
"-0.152832,-0.644531,-0.677979,7.690429,-13.671874,-23.193357"
"-0.150024,-0.720459,-0.734985,-2.136230,-7.751464,-29.418943"
"-0.141968,-0.832520,-0.729248,-4.272461,-1.586914,-29.052732"
"-0.135742,-0.795044,-0.776611,16.601562,5.310058,-5.432128"
"-0.158691,-0.618042,-0.782227,17.761230,0.549316,-4.089355"
"-0.156616,-0.602173,-0.736694,5.798339,-6.225585,-13.427733"
"-0.152222,-0.635254,-0.757812,-3.173828,-4.882812,-21.240232"
"-0.148682,-0.679321,-0.763550,-4.272461,-6.408691,-20.507811"
"-0.142578,-0.703369,-0.740723,-4.394531,-5.615234,-18.676758"
"-0.150879,-0.659790,-0.758179,-3.295898,-1.464844,-14.343261"
"-0.158569,-0.625977,-0.784912,-5.004883,-1.403808,-14.770507"
"-0.171387,-0.590820,-0.807251,-9.033203,-8.972168,-20.141600"
"-0.167358,-0.658447,-0.788330,-11.352538,-12.268065,-22.521971"
"-0.173584,-0.693359,-0.779297,-13.061522,-15.991210,-21.728514"
"-0.179932,-0.663086,-0.758301,-15.686034,-17.700195,-20.080564"
"-0.176636,-0.621460,-0.750854,-29.418943,-18.310547,-27.893064"
"-0.166870,-0.762085,-0.715088,-29.785154,-16.967773,-32.592773"
"-0.178833,-0.742065,-0.748779,-16.784668,-11.779784,-23.803709"
"-0.202271,-0.686279,-0.779663,-1.342773,-12.634276,-17.639160"
"-0.207764,-0.700317,-0.748779,-3.906250,-17.089844,-18.554687"
"-0.215088,-0.686890,-0.756104,-7.629394,-16.296387,-17.761230"
"-0.213379,-0.662842,-0.741943,-13.244628,-18.737793,-19.042969"
"-0.207764,-0.685547,-0.729980,-12.023925,-20.507811,-22.827147"
"-0.194214,-0.736206,-0.723633,-10.986327,-17.089844,-22.888182"
"-0.167358,-0.801025,-0.765259,-12.268065,-14.770507,-21.484373"
"-0.172607,-0.750610,-0.764526,-13.854980,-14.587401,-14.709472"
"-0.181274,-0.700684,-0.757568,-22.155760,-18.188477,-14.038085"
"-0.176880,-0.722168,-0.703247,-33.203125,-24.658201,-21.240232"
"-0.155029,-0.819458,-0.646240,-35.522461,-24.963377,-21.118162"
"-0.165039,-0.775513,-0.673706,-34.118652,-21.789549,-13.977050"
"-0.170898,-0.754517,-0.675659,-36.560059,-23.254393,-12.756347"
"-0.159668,-0.783691,-0.655518,-39.123535,-23.376463,-13.549804"
"-0.156250,-0.779053,-0.673706,-39.367676,-18.798828,-11.108397"
"-0.175049,-0.728027,-0.661499,-32.043457,-17.822266,-8.422852"
"-0.198975,-0.672852,-0.607422,-37.353516,-21.240232,-16.235352"
"-0.174805,-0.783447,-0.594727,-40.283199,-22.888182,-19.042969"
"-0.157104,-0.849243,-0.599487,-39.245605,-25.512693,-15.808105"
"-0.155640,-0.858154,-0.603394,-36.499023,-25.512693,-8.850098"
"-0.166626,-0.877075,-0.582031,-28.686522,-24.475096,-1.403808"
"-0.187012,-0.826538,-0.551392,-21.240232,-23.498533,2.563476"
"-0.192383,-0.775513,-0.491821,-6.469726,-21.179197,4.577637"
"-0.175781,-0.838745,-0.486938,-5.920410,-14.831542,0.366211"
"-0.162842,-0.870117,-0.521851,-11.901855,-8.850098,2.197266"
"-0.146729,-0.855225,-0.590576,-13.977050,-8.911133,4.882812"
"-0.149170,-0.852295,-0.572266,-13.610839,-14.526366,7.934570"
"-0.162964,-0.861084,-0.495605,-3.417969,-17.272949,11.230468"
"-0.171875,-0.833862,-0.483521,2.136230,-10.131835,15.075683"
"-0.164185,-0.783813,-0.510742,-1.525879,-5.920410,14.282226"
"-0.144287,-0.816650,-0.569946,-17.395020,-2.685547,10.253905"
"-0.140381,-0.841553,-0.571899,-29.235838,-7.629394,10.131835"
"-0.137207,-0.830200,-0.560669,-33.935547,-12.084960,11.230468"
"-0.132935,-0.829834,-0.526245,-35.400391,-12.878417,11.108397"
"-0.146606,-0.833740,-0.474609,-35.827637,-13.244628,11.657714"
"-0.153931,-0.835815,-0.451538,-37.963867,-9.521484,11.352538"
"-0.134521,-0.842529,-0.481323,-43.579098,-1.037598,10.131835"
"-0.097290,-0.872681,-0.555054,-42.602535,0.305176,10.375976"
"-0.094971,-0.845459,-0.515991,-39.428711,-4.516602,12.695312"
"-0.101440,-0.823853,-0.473389,-40.161129,-9.826660,13.305663"
"-0.092163,-0.848999,-0.424316,-36.560059,-11.596679,13.183593"
"-0.094116,-0.884399,-0.353760,-31.188963,-12.268065,14.770507"
"-0.094971,-0.866333,-0.339355,-26.367186,-6.042480,17.944336"
"-0.078247,-0.896240,-0.399536,-29.113768,3.540039,18.310547"
"-0.045654,-0.935791,-0.502075,-20.141600,-1.647949,23.559568"
"-0.046265,-0.871704,-0.467041,-13.122558,-7.080078,25.695799"
"-0.045898,-0.823975,-0.404541,-5.249023,-13.000487,24.902342"
"-0.038696,-0.850342,-0.374634,-9.277344,-12.084960,19.409180"
"-0.031250,-0.883179,-0.346436,-16.235352,-6.896972,19.409180"
"-0.027588,-0.903809,-0.353638,-22.033689,-3.967285,19.042969"
"-0.018188,-0.959473,-0.365112,-29.724119,1.281738,19.897461"
"-0.012329,-0.980957,-0.380615,-29.663084,5.859375,24.902342"
"-0.009277,-0.916870,-0.417603,-22.521971,6.591796,28.259275"
"-0.017090,-0.835449,-0.411987,-5.737304,4.699707,28.991697"
"-0.007446,-0.841919,-0.387939,-10.498046,1.586914,22.583006"
"0.022583,-0.938965,-0.369995,-20.996092,2.319336,20.935057"
"0.047363,-1.025146,-0.362793,-21.667479,2.136230,24.719236"
"0.030273,-0.933594,-0.273682,-9.155273,-0.244141,37.170410"
"0.024414,-0.891235,-0.234253,-12.451171,3.845215,40.100098"
"0.031128,-0.839111,-0.211670,-15.441894,8.666992,39.123535"
"0.059082,-0.814209,-0.279663,-18.127441,18.432617,36.376953"
"0.096313,-0.777588,-0.365234,-14.892577,19.531250,32.348633"
"0.102661,-0.761353,-0.381348,-7.690429,10.742187,26.733397"
"0.115845,-0.791016,-0.336304,-3.356933,6.347656,23.559568"
"0.102905,-0.846802,-0.283447,4.089355,3.356933,21.057127"
"0.095581,-0.865112,-0.246582,8.666992,4.089355,21.972654"
"0.075439,-0.856201,-0.189941,7.995605,7.202148,23.010252"
"0.058716,-0.785156,-0.216431,10.498046,16.479492,22.399900"
"0.069214,-0.802612,-0.261719,1.708984,21.545408,15.624999"
"0.102539,-0.889771,-0.306641,-9.155273,22.399900,16.662598"
"0.140991,-0.895752,-0.362061,-12.512206,24.291990,20.751951"
"0.122192,-0.770630,-0.416626,-5.371093,24.291990,29.052732"
"0.103638,-0.684448,-0.399902,11.901855,14.038085,26.184080"
"0.087524,-0.630981,-0.355225,17.028809,9.948730,19.042969"
"0.086548,-0.723633,-0.399902,16.662598,6.347656,3.417969"
"0.111694,-0.863403,-0.403198,12.878417,-0.366211,-4.455566"
"0.119629,-0.916138,-0.376709,15.747069,-2.502441,0.549316"
"0.113525,-0.947388,-0.362549,15.502929,2.685547,6.591796"
"0.092651,-0.850342,-0.425171,23.742674,18.005371,19.775391"
"0.072510,-0.773193,-0.454712,40.771481,23.925779,23.315428"
"0.060669,-0.687988,-0.436035,41.442867,22.766111,12.023925"
"0.086792,-0.760376,-0.487549,32.836914,25.207518,4.943848"
"0.102905,-0.847412,-0.562378,23.681639,27.404783,-0.976562"
"0.110718,-0.875122,-0.562988,26.550291,22.460936,2.441406"
"0.124512,-0.897095,-0.551880,28.991697,20.324705,6.225585"
"0.081299,-0.773193,-0.505371,41.931149,15.441894,14.892577"
""
"-0.065063,-0.745483,-0.686035,11.230468,4.882812,-11.596679"
"-0.067383,-0.715454,-0.702881,9.155273,7.812500,-10.498046"
"-0.063843,-0.695679,-0.778931,5.554199,8.361816,-11.230468"
"-0.060425,-0.708862,-0.804321,5.981445,2.685547,-12.573241"
"-0.074829,-0.730347,-0.738525,9.216309,-1.708984,-11.596679"
"-0.093262,-0.696655,-0.631470,11.962890,-4.028320,-8.911133"
"-0.092407,-0.703979,-0.676880,5.798339,4.577637,-10.925292"
"-0.094360,-0.699829,-0.720581,0.976562,7.751464,-13.305663"
"-0.098145,-0.713867,-0.781982,-0.488281,6.225585,-14.831542"
"-0.088989,-0.763062,-0.763306,3.723144,0.671387,-15.075683"
"-0.084839,-0.769775,-0.743042,8.361816,-1.708984,-9.826660"
"-0.101440,-0.723999,-0.684448,6.408691,-2.746582,-6.103515"
"-0.106079,-0.648682,-0.637817,5.310058,-1.586914,-6.652832"
"-0.097046,-0.687378,-0.676514,-1.831055,3.601074,-14.770507"
"-0.087769,-0.693726,-0.685913,9.704590,8.178711,-12.207030"
"-0.084961,-0.611450,-0.759521,14.892577,9.826660,-10.498046"
"-0.090210,-0.617798,-0.765015,18.676758,5.187988,-13.061522"
"-0.111694,-0.641113,-0.728149,19.409180,-1.525879,-15.380858"
"-0.117310,-0.645020,-0.694092,20.874022,-3.112793,-17.883301"
"-0.118652,-0.648071,-0.679932,20.751951,0.244141,-18.859863"
"-0.105591,-0.632080,-0.737427,14.831542,8.911133,-20.385740"
"-0.102417,-0.615723,-0.778931,11.901855,10.742187,-20.935057"
"-0.119629,-0.560181,-0.827637,13.549804,2.380371,-24.291990"
"-0.152222,-0.582886,-0.803955,15.197753,-2.136230,-28.137205"
"-0.166138,-0.647827,-0.779663,19.042969,-2.807617,-33.203125"
"-0.168945,-0.663940,-0.786255,13.732909,2.319336,-33.020020"
"-0.161133,-0.683838,-0.800903,7.019042,3.479004,-32.226562"
"-0.165527,-0.639282,-0.858643,0.488281,4.211426,-28.137205"
"-0.178955,-0.591309,-0.876587,0.549316,-0.610352,-28.564451"
"-0.184692,-0.606567,-0.864746,-0.122070,-7.324218,-33.691406"
"-0.198242,-0.599121,-0.832031,-0.854492,-10.131835,-34.179687"
"-0.209839,-0.581055,-0.817749,-9.216309,-12.634276,-36.499023"
"-0.212280,-0.607178,-0.821899,-17.211914,-13.000487,-38.818359"
"-0.207642,-0.694336,-0.828125,-18.249512,-13.488769,-37.597656"
"-0.222168,-0.651123,-0.776123,-19.592285,-16.357422,-30.273436"
"-0.235352,-0.536377,-0.767822,-35.644531,-16.784668,-30.273436"
"-0.247925,-0.546997,-0.771851,-59.753414,-21.118162,-48.767086"
"-0.247070,-0.682129,-0.655151,-50.842281,-19.470215,-49.194332"
"-0.211304,-0.666626,-0.789795,-31.921385,-2.624511,-41.442867"
"-0.193359,-0.822266,-0.832764,-30.761717,-2.746582,-40.954586"
"-0.205688,-0.817505,-0.827271,-20.446775,-13.793944,-24.536131"
"-0.256958,-0.690063,-0.769775,-19.531250,-31.616209,-18.554687"
"-0.277466,-0.678101,-0.638306,-21.362303,-37.109375,-21.545408"
"-0.250610,-0.745117,-0.594116,-22.583006,-30.822752,-26.245115"
"-0.227661,-0.761353,-0.642944,-26.794432,-14.038085,-24.963377"
"-0.198975,-0.850464,-0.764771,-32.287598,-10.070800,-17.883301"
"-0.222656,-0.768555,-0.791870,-29.418943,-13.000487,-10.559081"
"-0.258179,-0.646118,-0.683105,-26.428221,-23.437498,-6.652832"
"-0.266113,-0.647217,-0.630493,-34.179687,-26.794432,-15.136718"
"-0.259766,-0.720947,-0.609009,-32.348633,-23.315428,-19.042969"
"-0.231323,-0.748901,-0.637939,-31.494139,-21.484373,-19.775391"
"-0.209839,-0.866333,-0.624512,-37.475586,-19.165039,-19.958496"
"-0.213745,-0.859985,-0.593506,-36.682129,-15.624999,-8.239746"
"-0.229370,-0.810669,-0.598267,-34.667969,-11.596679,0.549316"
"-0.263062,-0.697876,-0.567993,-38.208008,-12.817382,-4.699707"
"-0.264526,-0.752197,-0.545044,-44.433590,-14.282226,-10.375976"
"-0.243042,-0.832764,-0.552002,-55.786129,-15.747069,-15.624999"
"-0.231323,-0.858154,-0.567749,-59.448238,-14.526366,-13.244628"
"-0.197754,-0.924438,-0.604248,-52.917477,-13.549804,-5.981445"
"-0.207642,-0.899536,-0.586548,-28.320311,-19.958496,7.202148"
"-0.234619,-0.761108,-0.470947,-19.470215,-21.179197,9.399414"
"-0.261353,-0.767334,-0.399414,-18.188477,-17.089844,3.479004"
"-0.256470,-0.800049,-0.382324,-24.719236,-11.108397,-2.868652"
"-0.210327,-0.935303,-0.417725,-29.663084,-6.286621,-3.540039"
"-0.189453,-1.005371,-0.526123,-34.790039,0.366211,5.126953"
"-0.198364,-0.953735,-0.543335,-21.850584,-3.356933,19.592285"
"-0.226196,-0.828491,-0.514160,-14.282226,-7.995605,22.155760"
"-0.218628,-0.808716,-0.466309,-16.662598,-9.277344,19.592285"
"-0.193359,-0.835693,-0.474609,-28.991697,-8.178711,14.465331"
"-0.179565,-0.849365,-0.511108,-40.405270,-8.483887,12.512206"
"-0.176270,-0.850220,-0.514648,-42.968746,-11.779784,12.634276"
"-0.177490,-0.840088,-0.433594,-46.936031,-16.418457,11.840819"
"-0.171509,-0.864868,-0.417236,-53.710934,-12.145995,9.643555"
"-0.160034,-0.879639,-0.433960,-54.382320,-9.582520,10.253905"
"-0.150879,-0.864868,-0.471191,-54.870602,-7.751464,10.803222"
"-0.146729,-0.891113,-0.465942,-56.518551,-12.451171,9.094238"
"-0.158569,-0.957275,-0.392700,-55.358883,-17.272949,11.779784"
"-0.173340,-0.915283,-0.308716,-54.931637,-16.845703,13.549804"
"-0.160034,-0.918579,-0.286743,-54.870602,-10.681151,13.122558"
"-0.147339,-0.939209,-0.301392,-56.579586,-5.065917,12.573241"
"-0.121826,-0.973267,-0.339844,-49.865719,-5.920410,16.967773"
"-0.129028,-0.923950,-0.307373,-40.710445,-7.995605,19.836426"
"-0.130371,-0.904297,-0.263550,-28.686522,-9.826660,20.935057"
"-0.122681,-0.944458,-0.261230,-31.127928,-8.728027,18.676758"
"-0.111328,-1.003052,-0.242432,-29.541014,-8.972168,20.568846"
"-0.110474,-0.978149,-0.239380,-27.709959,-7.385253,27.160643"
"-0.090820,-0.982910,-0.252319,-29.235838,-5.004883,30.639647"
"-0.072998,-0.987305,-0.249634,-21.118162,-4.089355,35.034180"
"-0.056274,-0.951782,-0.248047,-16.418457,-4.028320,38.085937"
"-0.049561,-0.891235,-0.217651,-14.831542,-6.652832,40.649410"
"-0.044312,-0.912231,-0.201660,-17.211914,-8.972168,36.621094"
"-0.036621,-1.000488,-0.155640,-8.789063,-7.934570,39.611816"
"-0.031372,-1.000488,-0.148193,-2.929687,-4.760742,44.128414"
"0.006470,-0.956665,-0.225098,4.211426,3.295898,50.292965"
"0.018066,-0.935913,-0.260620,16.418457,3.662109,52.368160"
"-0.006836,-0.819580,-0.245850,21.972654,-3.051758,50.109859"
"0.021362,-0.758545,-0.211426,16.845703,-3.906250,43.579098"
"0.064453,-0.890503,-0.206665,4.028320,-0.732422,28.381346"
"0.085815,-0.967407,-0.226685,-8.666992,7.202148,27.770994"
"0.095581,-0.988159,-0.301147,-11.352538,9.338379,33.203125"
"0.078857,-0.814453,-0.244141,-6.286621,2.258301,42.297359"
"0.066284,-0.755371,-0.192017,-3.723144,1.708984,35.400391"
"0.063721,-0.732178,-0.178589,-1.708984,11.291503,22.827147"
"0.096680,-0.819214,-0.244995,-2.014160,13.427733,17.517090"
"0.113647,-0.946655,-0.274780,-7.995605,11.352538,14.099120"
"0.129150,-0.983765,-0.293457,-13.427733,10.070800,21.972654"
"0.127563,-0.954834,-0.339722,-8.117676,5.126953,33.508301"
"0.093750,-0.795288,-0.313232,0.610352,0.671387,36.865234"
"0.074585,-0.734619,-0.259277,6.713867,-5.371093,29.785154"
"0.081421,-0.797485,-0.223633,7.751464,-3.173828,16.052246"
"0.114990,-0.958740,-0.216675,8.483887,2.746582,14.099120"
"0.149902,-1.003296,-0.301880,11.596679,13.854980,20.629881"
"0.170044,-0.993530,-0.373047,25.878904,15.441894,31.555174"
"0.149048,-0.871948,-0.416626,48.645016,1.525879,37.902832"
"0.128418,-0.769775,-0.316040,51.147457,-4.028320,35.156250"
"0.140991,-0.804443,-0.270508,42.663570,-3.417969,23.864744"
"0.140381,-0.841797,-0.265137,32.653809,2.258301,14.648437"
"0.173462,-0.960571,-0.243530,25.695799,6.042480,11.962890"
"0.207520,-1.052002,-0.323608,17.028809,19.958496,16.784668"
"0.197266,-0.995972,-0.374268,29.296873,25.329588,32.714844"
"0.153076,-0.823120,-0.394775,32.714844,17.456055,33.081055"
"0.141235,-0.754395,-0.357300,30.151365,14.282226,27.404783"
"0.155151,-0.804810,-0.357666,17.944336,13.183593,14.099120"
"0.174072,-0.885376,-0.371460,8.789063,16.662598,7.568359"
"0.218018,-0.964966,-0.435059,9.277344,18.920898,11.474608"
"0.208374,-0.828491,-0.419800,21.667479,16.845703,24.475096"
"0.196777,-0.739990,-0.398804,22.155760,14.038085,27.526854"
"0.198364,-0.699585,-0.396240,9.155273,11.474608,9.216309"
""
"-0.018311,-0.556763,-0.590942,-37.719727,39.306641,-28.686522"
"0.056885,-0.616211,-0.810547,-43.151852,35.095215,-41.809078"
"0.043579,-0.672119,-0.792969,-40.954586,29.724119,-42.663570"
"0.052124,-0.642822,-0.837402,-29.663084,26.428221,-34.118652"
"0.003174,-0.610352,-0.794678,-24.536131,16.845703,-30.395506"
"-0.026611,-0.608276,-0.719604,-17.028809,13.977050,-32.958984"
"-0.027344,-0.574341,-0.726685,-12.695312,19.897461,-40.893551"
"-0.004761,-0.650024,-0.861450,-11.535644,18.249512,-45.959469"
"-0.055420,-0.719116,-0.795166,1.464844,4.211426,-46.752926"
"-0.096191,-0.718872,-0.712891,14.709472,-1.220703,-41.076656"
"-0.150146,-0.689941,-0.660767,16.357422,6.042480,-38.696289"
"-0.158203,-0.635132,-0.727051,7.568359,8.361816,-41.198727"
"-0.117920,-0.750977,-0.823120,-12.268065,6.591796,-48.706051"
"-0.145874,-0.792603,-0.828369,-4.089355,-4.089355,-43.701168"
"-0.183228,-0.792236,-0.752319,24.536131,-12.878417,-34.179687"
"-0.218140,-0.741211,-0.655273,36.437988,-9.704590,-30.212400"
"-0.187134,-0.718384,-0.842163,36.926270,3.601074,-28.137205"
"-0.184570,-0.712402,-0.915039,17.333984,-5.310058,-31.555174"
"-0.202393,-0.713501,-0.786621,22.460936,-16.357422,-34.912109"
"-0.230103,-0.704102,-0.683472,29.968260,-11.901855,-35.156250"
"-0.286987,-0.681519,-0.676636,32.836914,-0.183105,-35.156250"
"-0.289429,-0.679443,-0.662598,19.775391,11.108397,-38.024902"
"-0.244629,-0.728271,-0.850952,7.141113,13.000487,-41.076656"
"-0.196899,-0.836304,-0.979248,10.803222,1.586914,-39.306641"
"-0.233032,-0.736694,-0.845093,24.108885,-27.832029,-30.090330"
"-0.301270,-0.682251,-0.601929,16.113281,-43.334957,-31.677244"
"-0.307251,-0.712891,-0.521973,8.666992,-34.606934,-34.606934"
"-0.286011,-0.718628,-0.494751,7.812500,-25.024412,-32.958984"
"-0.243164,-0.665283,-0.571411,-2.563476,-3.662109,-30.578611"
"-0.178833,-0.736328,-0.741455,-15.380858,6.530761,-33.874512"
"-0.168701,-0.766724,-0.778809,-6.042480,-12.695312,-29.296873"
"-0.217041,-0.729980,-0.611084,19.470215,-29.357908,-18.066406"
"-0.265625,-0.600708,-0.494019,27.709959,-24.169920,-13.671874"
"-0.242676,-0.580200,-0.605713,25.756834,-6.347656,-17.639160"
"-0.214600,-0.669434,-0.707397,14.953612,2.075195,-25.512693"
"-0.214966,-0.689087,-0.752441,9.094238,2.807617,-24.597166"
"-0.215454,-0.771729,-0.794312,11.779784,-0.976562,-23.803709"
"-0.215942,-0.842041,-0.822876,27.160643,-13.244628,-15.319823"
"-0.223999,-0.803589,-0.810425,33.935547,-25.207518,-1.281738"
"-0.258911,-0.615601,-0.732544,34.973145,-27.038572,0.488281"
"-0.271729,-0.547363,-0.695801,25.878904,-22.155760,-5.615234"
"-0.231201,-0.706787,-0.832153,-7.507324,-12.756347,-20.812986"
"-0.218018,-0.817749,-0.876587,-24.414061,-16.845703,-19.714355"
"-0.203613,-0.903687,-0.890747,-24.597166,-20.568846,-1.220703"
"-0.223022,-0.830933,-0.926758,-18.554687,-25.878904,6.469726"
"-0.256958,-0.686768,-0.788574,3.173828,-39.001465,16.174316"
"-0.270630,-0.630615,-0.769531,10.742187,-34.606934,12.268065"
"-0.256592,-0.673462,-0.763428,-10.131835,-31.738279,0.061035"
"-0.202881,-0.826416,-0.779785,-40.527340,-30.456541,1.342773"
"-0.182739,-0.903076,-0.745239,-51.086422,-30.761717,8.117676"
"-0.206055,-0.789551,-0.663940,-47.424313,-29.113768,25.268553"
"-0.213623,-0.699707,-0.660767,-29.357908,-22.583006,30.700682"
"-0.204712,-0.637451,-0.691284,-30.273436,-18.859863,22.094725"
"-0.151855,-0.656494,-0.695923,-31.982420,-17.028809,18.371582"
"-0.129028,-0.716309,-0.694702,-42.846676,-16.845703,9.826660"
"-0.122437,-0.754272,-0.669556,-50.476070,-19.714355,7.629394"
"-0.110229,-0.787231,-0.655762,-47.241207,-19.592285,12.390136"
"-0.124878,-0.737305,-0.648071,-39.550781,-18.920898,16.845703"
"-0.130127,-0.639282,-0.630249,-20.507811,-16.662598,21.179197"
"-0.117188,-0.634521,-0.646240,-21.545408,-14.221190,13.671874"
"-0.109863,-0.618774,-0.654419,-32.592773,-15.686034,2.502441"
"-0.074341,-0.740845,-0.675171,-38.818359,-17.456055,-2.197266"
"-0.047363,-0.831909,-0.717407,-43.762203,-24.108885,-1.342773"
"-0.061035,-0.854004,-0.694946,-32.775879,-32.958984,7.446289"
"-0.094971,-0.809448,-0.570557,-14.831542,-31.799314,17.883301"
"-0.103394,-0.687012,-0.540771,-7.995605,-24.597166,15.197753"
"-0.073853,-0.657227,-0.568726,-12.390136,-23.437498,8.483887"
"-0.017578,-0.831787,-0.608643,-24.658201,-20.263670,-2.075195"
"-0.003174,-0.871948,-0.640259,-21.606443,-19.042969,5.310058"
"-0.024902,-0.804565,-0.661621,-18.981934,-21.850584,10.559081"
"-0.035767,-0.817505,-0.626953,-14.709472,-28.991697,15.624999"
"-0.037476,-0.730835,-0.536377,4.455566,-32.287598,21.545408"
"-0.050781,-0.657715,-0.500244,10.742187,-28.808592,15.563964"
"-0.029785,-0.684692,-0.455811,-5.676269,-21.911619,0.244141"
"-0.002075,-0.849609,-0.491577,-16.723633,-18.249512,-3.295898"
"0.014526,-0.920776,-0.556030,-25.756834,-12.207030,2.563476"
"0.013550,-0.878296,-0.590088,-16.784668,-10.131835,14.282226"
"0.012939,-0.776001,-0.596069,-8.789063,-11.169433,16.784668"
"0.009644,-0.727661,-0.559326,7.507324,-13.244628,16.479492"
"0.003662,-0.708862,-0.577271,6.958007,-18.310547,12.390136"
"0.027954,-0.759888,-0.392212,21.667479,-7.995605,6.164550"
"0.057007,-0.819214,-0.591675,17.089844,6.958007,6.652832"
"0.041504,-0.854004,-0.591064,-7.080078,-5.981445,5.798339"
"0.022461,-0.821167,-0.479126,-19.409180,-17.150879,9.582520"
"0.013062,-0.755249,-0.457520,-22.644041,-4.028320,7.812500"
"0.031616,-0.751953,-0.503418,-25.085447,-0.549316,4.760742"
"0.042969,-0.793091,-0.508911,-34.545898,-3.356933,-0.610352"
"0.045654,-0.816040,-0.488159,-39.794922,-7.934570,-1.586914"
"0.046509,-0.849243,-0.459839,-35.156250,-5.554199,0.305176"
"0.043213,-0.874268,-0.444458,-34.057617,-2.319336,1.708984"
"0.035889,-0.854370,-0.504150,-37.597656,3.723144,6.408691"
"0.026367,-0.815796,-0.494873,-26.550291,1.647949,8.666992"
"0.031006,-0.802734,-0.448853,-14.892577,5.920410,6.591796"
"0.043579,-0.800781,-0.465942,-11.108397,9.216309,5.859375"
"0.063599,-0.817383,-0.553101,-4.394531,11.474608,3.723144"
"0.073730,-0.866577,-0.587280,-2.441406,6.225585,3.906250"
"0.072144,-0.989868,-0.562988,0.549316,2.197266,8.056641"
"0.032593,-0.848145,-0.446289,11.291503,-0.427246,21.362303"
"0.038330,-0.779175,-0.460449,5.432128,7.934570,19.958496"
"0.056152,-0.787598,-0.503174,-1.586914,13.366698,14.160155"
"0.062744,-0.788330,-0.557251,-1.403808,12.451171,13.000487"
"0.076904,-0.844849,-0.591553,-5.065917,8.178711,9.521484"
"0.078857,-0.898193,-0.587769,-10.009766,0.305176,10.070800"
"0.071411,-0.919312,-0.475952,-12.145995,-3.540039,13.000487"
"0.060791,-0.841064,-0.403442,-21.972654,-2.868652,16.906738"
"0.045044,-0.785522,-0.382935,-24.414061,3.967285,14.404296"
"0.041138,-0.767578,-0.381836,-16.906738,12.207030,9.765625"
"0.068115,-0.801758,-0.467896,-20.446775,15.197753,6.164550"
"0.111816,-0.929810,-0.565308,-26.733397,13.122558,3.723144"
"0.116577,-0.942749,-0.548950,-13.610839,1.647949,13.366698"
"0.092773,-0.863647,-0.434082,-6.469726,-2.563476,19.958496"
"0.081543,-0.848267,-0.360962,-7.202148,0.793457,20.629881"
"0.071533,-0.782715,-0.373901,-6.042480,11.047362,21.606443"
"0.071289,-0.755859,-0.368774,-1.525879,17.517090,16.906738"
"0.097290,-0.771240,-0.409546,3.356933,23.681639,11.779784"
"0.122803,-0.885620,-0.489014,5.126953,23.986814,11.352538"
"0.123779,-0.899658,-0.475464,13.488769,18.127441,19.348145"
"0.106567,-0.847290,-0.430542,20.324705,13.183593,28.625486"
"0.098877,-0.742798,-0.391479,20.996092,18.066406,30.090330"
"0.081665,-0.633789,-0.399292,23.132322,19.470215,27.343748"
"0.085205,-0.595825,-0.410156,28.686522,23.437498,15.808105"
"0.103516,-0.635010,-0.470215,27.526854,28.381346,3.662109"
"0.137085,-0.859375,-0.532349,25.146482,25.634764,1.098633"
"0.102539,-0.911743,-0.427734,27.648924,16.784668,12.084960"
"0.081787,-0.861572,-0.381104,21.057127,23.132322,26.794432"
"0.058228,-0.695435,-0.446777,15.075683,34.667969,30.212400"
"0.035522,-0.523804,-0.522217,15.869140,35.400391,25.756834"
"0.059204,-0.536865,-0.558228,20.202635,31.433104,7.873535"
""
"-0.105957,-0.591797,-0.932861,32.531738,19.775391,-23.315428"
"-0.083862,-0.589966,-0.915527,36.987305,8.178711,-22.338865"
"-0.115601,-0.570190,-0.870483,33.020020,1.220703,-23.071287"
"-0.133301,-0.559326,-0.810181,21.057127,-6.103515,-25.756834"
"-0.149414,-0.557495,-0.766357,5.981445,0.610352,-28.320311"
"-0.164307,-0.504883,-0.821655,2.746582,5.065917,-29.479979"
"-0.125122,-0.549194,-0.935425,-2.441406,9.521484,-35.583496"
"-0.115967,-0.597900,-0.946533,3.784179,-1.220703,-35.522461"
"-0.134766,-0.621094,-0.804687,12.084960,-8.300781,-29.479979"
"-0.170044,-0.630371,-0.757202,11.474608,-5.493164,-27.587889"
"-0.222046,-0.549438,-0.714233,11.291503,-1.403808,-24.230955"
"-0.187256,-0.530762,-0.755005,3.112793,10.437011,-28.076170"
"-0.151245,-0.544434,-0.853882,-5.065917,20.446775,-31.188963"
"-0.142578,-0.530396,-0.973877,-1.159668,14.953612,-30.761717"
"-0.203125,-0.526367,-0.884399,13.427733,-5.432128,-31.433104"
"-0.218140,-0.588623,-0.848999,21.240232,-11.718749,-33.081055"
"-0.201660,-0.704834,-0.847534,16.906738,-10.620116,-21.240232"
"-0.209351,-0.573486,-0.829834,11.352538,-11.108397,-15.197753"
"-0.205078,-0.462646,-0.824585,-5.493164,-11.596679,-15.930175"
"-0.202637,-0.457886,-0.843506,-14.831542,-10.131835,-24.169920"
"-0.211670,-0.438965,-0.868530,-32.592773,-14.221190,-35.583496"
"-0.216553,-0.608276,-0.822632,-42.846676,-18.859863,-44.250484"
"-0.190552,-0.738525,-0.828369,-26.306150,-13.732909,-33.813477"
"-0.181519,-0.731201,-0.929932,-1.220703,-7.995605,-15.563964"
"-0.199463,-0.641602,-0.923828,19.653320,-18.859863,-6.530761"
"-0.219604,-0.523071,-0.843872,20.874022,-18.127441,-5.310058"
"-0.208618,-0.522705,-0.909058,6.469726,-15.624999,-10.925292"
"-0.197876,-0.574219,-0.926636,-12.268065,-23.620604,-17.761230"
"-0.175049,-0.649902,-0.877808,-7.995605,-22.949217,-14.160155"
"-0.176147,-0.601807,-0.893799,-10.681151,-18.981934,-12.939452"
"-0.169189,-0.648560,-0.953247,-28.198240,-18.127441,-13.305663"
"-0.180542,-0.638550,-0.949463,-33.142090,-28.259275,-6.652832"
"-0.209717,-0.552490,-0.851196,-34.545898,-34.240723,-4.638672"
"-0.221680,-0.505981,-0.742676,-36.743164,-31.433104,-7.385253"
"-0.179443,-0.606812,-0.788574,-43.640133,-16.845703,-16.235352"
"-0.156738,-0.658325,-0.848877,-39.672852,-11.291503,-16.906738"
"-0.153076,-0.704102,-0.895142,-32.836914,-22.338865,-10.620116"
"-0.177612,-0.696899,-0.786499,-28.869627,-27.160643,-5.554199"
"-0.207764,-0.600830,-0.714966,-34.545898,-26.184080,1.831055"
"-0.207886,-0.603882,-0.713623,-48.034664,-19.348145,-2.197266"
"-0.171875,-0.630371,-0.751587,-46.813961,-17.211914,-5.615234"
"-0.146484,-0.615356,-0.805786,-48.339840,-19.348145,-8.300781"
"-0.134521,-0.715820,-0.789795,-57.250973,-26.794432,-14.282226"
"-0.140381,-0.768311,-0.749756,-54.077145,-34.179687,-9.643555"
"-0.161377,-0.741821,-0.647339,-42.785641,-35.095215,-1.281738"
"-0.162231,-0.707886,-0.582031,-38.818359,-27.221678,-0.610352"
"-0.127319,-0.784058,-0.628418,-38.940430,-21.972654,-0.305176"
"-0.125366,-0.745239,-0.667114,-29.052732,-17.517090,5.981445"
"-0.127563,-0.707397,-0.678711,-21.423338,-20.385740,6.530761"
"-0.118530,-0.733276,-0.658813,-24.047850,-24.047850,2.014160"
"-0.102539,-0.796997,-0.623535,-26.733397,-22.949217,2.258301"
"-0.082886,-0.835205,-0.625244,-37.109375,-17.639160,5.798339"
"-0.078491,-0.842163,-0.626099,-37.536621,-17.272949,11.413573"
"-0.090698,-0.775513,-0.621826,-36.621094,-19.165039,13.977050"
"-0.088379,-0.747314,-0.677368,-44.128414,-23.132322,12.573241"
"-0.069702,-0.808594,-0.652100,-49.560543,-34.362793,7.507324"
"-0.068359,-0.829834,-0.583008,-50.354000,-42.602535,7.629394"
"-0.059937,-0.827148,-0.496216,-52.124020,-40.466305,8.789063"
"-0.046021,-0.812866,-0.499756,-52.673336,-33.264160,9.704590"
"-0.042847,-0.845825,-0.460693,-53.344723,-32.226562,8.422852"
"-0.040405,-0.849243,-0.423828,-54.443356,-29.357908,10.131835"
"-0.031128,-0.838135,-0.400024,-54.992672,-25.512693,10.925292"
"-0.022705,-0.837891,-0.395508,-53.039547,-18.371582,11.169433"
"-0.016846,-0.858643,-0.395264,-51.879879,-11.840819,10.986327"
"-0.016846,-0.882446,-0.408081,-43.273922,-7.202148,14.282226"
"-0.005981,-0.854980,-0.449585,-38.879395,-6.225585,15.380858"
"0.007324,-0.890625,-0.436279,-32.592773,-8.789063,14.831542"
"0.011475,-0.898315,-0.403320,-25.390623,-10.803222,17.761230"
"0.003052,-0.847290,-0.337769,-15.014647,-7.324218,19.714355"
"0.012207,-0.829712,-0.312622,-15.197753,-3.906250,17.883301"
"0.029175,-0.871460,-0.349243,-18.432617,3.173828,14.587401"
"0.035156,-0.889160,-0.370239,-12.939452,6.103515,16.235352"
"0.048462,-0.910522,-0.392944,-11.413573,5.493164,17.883301"
"0.057617,-0.913452,-0.380127,-6.713867,1.586914,21.911619"
"0.056030,-0.891602,-0.358032,-1.586914,-1.647949,26.489256"
"0.035645,-0.846924,-0.276978,1.892090,5.187988,29.357908"
"0.027100,-0.799927,-0.316406,-1.770019,11.535644,27.160643"
"0.037598,-0.865234,-0.367310,-10.803222,15.197753,19.348145"
"0.052979,-0.906494,-0.369019,-15.502929,12.512206,17.639160"
"0.086304,-0.955933,-0.355713,-17.761230,12.268065,19.653320"
"0.110107,-0.985962,-0.439941,-22.460936,16.235352,27.099607"
"0.069824,-0.825806,-0.475220,-4.821777,9.399414,36.437988"
"0.053101,-0.763794,-0.418823,2.868652,-3.295898,29.724119"
"0.064697,-0.748291,-0.283325,-5.126953,0.671387,17.089844"
"0.084717,-0.843872,-0.262207,-7.080078,5.859375,12.573241"
"0.112793,-0.907104,-0.264038,-0.244141,13.488769,11.047362"
"0.115723,-0.908081,-0.279785,0.427246,18.249512,15.930175"
"0.112793,-0.890259,-0.261963,-2.014160,18.859863,18.310547"
"0.099731,-0.827393,-0.243774,-3.173828,26.306150,22.766111"
"0.110840,-0.787231,-0.325928,-4.943848,44.921871,24.291990"
"0.119873,-0.732422,-0.521729,-2.746582,46.081539,23.193357"
"0.084717,-0.671509,-0.427124,17.822266,25.817869,17.211914"
"0.093506,-0.700073,-0.359741,25.512693,18.493652,7.995605"
"0.103882,-0.818726,-0.332642,25.268553,28.015135,7.873535"
"0.116943,-0.809204,-0.362305,23.132322,33.386230,11.108397"
"0.133911,-0.770020,-0.449829,17.395020,43.029781,15.014647"
"0.087402,-0.668823,-0.487183,17.272949,38.757324,14.770507"
"0.054687,-0.609619,-0.446045,27.099607,29.724119,7.324218"
"0.063843,-0.635864,-0.493896,34.179687,32.653809,-3.234863"
"0.095459,-0.763184,-0.617554,38.940430,30.822752,-6.042480"
"0.103638,-0.843872,-0.577759,52.124020,20.385740,-1.403808"
"0.093018,-0.830933,-0.542114,51.269527,19.287109,10.131835"
"0.058838,-0.758057,-0.486206,49.072262,27.221678,17.517090"
"0.038696,-0.625854,-0.526611,41.320797,32.775879,15.258788"
"0.040527,-0.651367,-0.593506,37.170410,35.461426,4.089355"
"0.044800,-0.626831,-0.594971,56.335445,41.381832,3.784179"
"0.073730,-0.689575,-0.721313,61.157223,46.264645,2.014160"
"0.039063,-0.748657,-0.729370,67.626953,34.790039,1.525879"
"0.006470,-0.731812,-0.636475,67.199707,18.127441,3.845215"
"0.003540,-0.740112,-0.570435,56.762691,21.667479,3.906250"
"0.038574,-0.718262,-0.692993,36.315918,34.912109,7.141113"
"0.030884,-0.634888,-0.714478,39.123535,33.325195,10.253905"
"0.005127,-0.532715,-0.728027,36.987305,28.686522,-0.854492"
"0.002441,-0.670166,-0.745117,36.437988,25.634764,-6.774902"
"0.001099,-0.725342,-0.659424,41.748043,19.226074,-6.286621"
"-0.002075,-0.712891,-0.637817,35.766602,24.597166,-0.793457"
"-0.002319,-0.680298,-0.679077,30.334471,29.357908,0.244141"
"0.027344,-0.615723,-0.813477,19.836426,35.278320,0.915527"
"0.015991,-0.578247,-0.844849,24.353025,26.000975,-2.563476"
"-0.015625,-0.563721,-0.799194,27.954100,19.104004,-6.958007"
"-0.039307,-0.636353,-0.723145,24.902342,13.183593,-14.221190"
"-0.049683,-0.694702,-0.687256,17.700195,19.165039,-13.732909"
"-0.039795,-0.682373,-0.714355,15.380858,33.020020,-7.202148"
"-0.014648,-0.586914,-0.870361,10.070800,36.926270,-5.615234"
"-0.022827,-0.603271,-0.921387,2.075195,28.381346,-9.765625"
"-0.070557,-0.598511,-0.822144,6.225585,14.526366,-11.718749"
"-0.080566,-0.583740,-0.797485,10.070800,12.573241,-12.878417"
"-0.088623,-0.639771,-0.770020,9.033203,14.343261,-14.831542"
""
"-0.265259,-0.400513,-0.878174,-41.931149,-24.475096,-21.667479"
"-0.258179,-0.488647,-0.819824,-39.428711,-29.479979,-28.686522"
"-0.234619,-0.496338,-0.762817,-25.573729,-23.803709,-24.597166"
"-0.210083,-0.487061,-0.832886,-6.713867,-5.371093,-22.888182"
"-0.175293,-0.586426,-0.995483,-1.892090,7.751464,-22.583006"
"-0.172485,-0.638672,-1.054077,-1.586914,-6.591796,-12.817382"
"-0.212769,-0.512573,-1.001099,2.441406,-34.790039,-3.784179"
"-0.233887,-0.403198,-0.821899,-1.708984,-41.076656,-7.934570"
"-0.215210,-0.506226,-0.763306,-12.817382,-28.625486,-19.104004"
"-0.196533,-0.528198,-0.815308,-17.272949,-9.643555,-18.859863"
"-0.173096,-0.540649,-0.927002,-21.850584,-10.437011,-15.502929"
"-0.182861,-0.534424,-0.948608,-25.573729,-14.709472,-13.671874"
"-0.209839,-0.475830,-0.895508,-25.085447,-24.902342,-11.779784"
"-0.204346,-0.497559,-0.832520,-23.620604,-27.282713,-16.113281"
"-0.190186,-0.513672,-0.829956,-24.291990,-21.545408,-17.761230"
"-0.178833,-0.490723,-0.855347,-23.437498,-19.531250,-17.761230"
"-0.166992,-0.519043,-0.892334,-28.381346,-19.714355,-19.775391"
"-0.156738,-0.599121,-0.873413,-37.353516,-24.841307,-20.019531"
"-0.160278,-0.614258,-0.842773,-39.367676,-29.663084,-14.465331"
"-0.176880,-0.585937,-0.784790,-37.353516,-30.761717,-11.291503"
"-0.195312,-0.532593,-0.708374,-32.409668,-29.541014,-9.826660"
"-0.191650,-0.547729,-0.704468,-40.100098,-21.545408,-15.502929"
"-0.164551,-0.650635,-0.777588,-40.039062,-16.174316,-15.380858"
"-0.126587,-0.748291,-0.877075,-41.809078,-16.235352,-11.962890"
"-0.157959,-0.683716,-0.852783,-39.733887,-23.742674,-0.305176"
"-0.174438,-0.609009,-0.791260,-35.827637,-29.174803,3.540039"
"-0.166626,-0.608765,-0.707031,-39.550781,-22.705076,-3.417969"
"-0.154419,-0.654663,-0.698608,-39.611816,-18.249512,-5.554199"
"-0.155762,-0.677734,-0.708130,-39.306641,-13.122558,-8.911133"
"-0.153198,-0.695679,-0.723877,-39.733887,-9.277344,-10.009766"
"-0.137329,-0.759644,-0.765991,-38.635254,-7.141113,-5.371093"
"-0.128662,-0.806763,-0.739136,-37.414551,-7.263183,-0.854492"
"-0.150879,-0.722534,-0.687012,-19.775391,-7.141113,11.474608"
"-0.151367,-0.655762,-0.705811,-3.479004,-5.249023,15.014647"
"-0.139526,-0.681763,-0.717163,-13.610839,-10.375976,9.338379"
"-0.125000,-0.736084,-0.691162,-19.592285,-12.268065,8.728027"
"-0.128296,-0.703613,-0.704468,-16.845703,-9.277344,13.000487"
"-0.128174,-0.703979,-0.731934,-28.686522,-7.263183,13.671874"
"-0.110718,-0.795044,-0.751221,-35.827637,-12.145995,16.662598"
"-0.106689,-0.772217,-0.702881,-33.142090,-14.465331,20.874022"
"-0.111938,-0.667969,-0.651489,-24.108885,-14.892577,26.184080"
"-0.107178,-0.615723,-0.658813,-36.193848,-8.666992,20.935057"
"-0.090698,-0.693115,-0.753784,-49.194332,-8.117676,14.343261"
"-0.068359,-0.838745,-0.724243,-59.936520,-20.507811,8.422852"
"-0.063232,-0.812988,-0.594238,-53.588863,-30.700682,16.113281"
"-0.068115,-0.753052,-0.534302,-45.654293,-26.855467,21.423338"
"-0.073120,-0.716797,-0.472900,-47.729488,-22.155760,19.348145"
"-0.048706,-0.775879,-0.486572,-51.452633,-12.145995,14.038085"
"-0.030396,-0.798584,-0.524292,-51.757809,-4.394531,14.648437"
"-0.015381,-0.816895,-0.560303,-44.433590,-7.202148,17.089844"
"-0.006592,-0.818237,-0.512573,-41.564938,-9.155273,17.700195"
"-0.006592,-0.801392,-0.518799,-39.489746,-8.178711,19.714355"
"-0.003174,-0.781982,-0.544800,-30.456541,-7.568359,20.629881"
"0.009399,-0.761108,-0.556641,-14.892577,-13.366698,17.822266"
"0.019165,-0.817627,-0.502686,-13.488769,-15.808105,16.052246"
"0.019897,-0.879883,-0.438843,-17.089844,-15.991210,16.723633"
"0.032715,-0.845337,-0.404663,-15.258788,-9.277344,22.094725"
"0.040771,-0.831421,-0.423706,-18.981934,1.464844,24.047850"
"0.049683,-0.820557,-0.494629,-19.836426,5.615234,24.108885"
"0.052612,-0.833740,-0.529907,-19.348145,4.394531,23.620604"
"0.058716,-0.858765,-0.491089,-10.009766,-0.854492,23.925779"
"0.066528,-0.867554,-0.464966,-3.417969,-2.197266,25.756834"
"0.064575,-0.851685,-0.433228,-2.746582,-1.586914,27.099607"
"0.065430,-0.819946,-0.434570,-5.554199,0.549316,28.198240"
"0.079590,-0.816528,-0.496216,-13.488769,4.028320,27.221678"
"0.082153,-0.813354,-0.502686,-8.972168,0.366211,26.794432"
"0.094849,-0.810181,-0.445435,-3.662109,-1.464844,26.611326"
"0.103149,-0.791992,-0.422974,2.929687,0.854492,26.855467"
"0.107178,-0.769409,-0.411865,2.624511,3.784179,26.000975"
"0.118652,-0.797119,-0.419678,-1.098633,5.920410,23.864744"
"0.150513,-0.831299,-0.517700,-2.868652,12.145995,24.169920"
"0.157227,-0.812134,-0.576172,2.136230,10.131835,29.174803"
"0.145508,-0.753540,-0.543457,7.690429,-3.295898,28.381346"
"0.120361,-0.704224,-0.402344,10.070800,-6.347656,26.550291"
"0.111938,-0.682617,-0.347656,4.455566,-0.122070,21.301268"
"0.129150,-0.712158,-0.373535,-7.812500,15.502929,13.671874"
"0.171265,-0.833130,-0.493408,-6.652832,20.812986,12.207030"
"0.180664,-0.802002,-0.564941,1.953125,18.615723,19.958496"
"0.173828,-0.771606,-0.552979,3.356933,7.751464,25.207518"
"0.143555,-0.717163,-0.488037,3.051758,1.770019,24.658201"
"0.098999,-0.649780,-0.407837,9.216309,2.014160,22.521971"
"0.096802,-0.618286,-0.380005,23.010252,10.742187,13.488769"
"0.123413,-0.663208,-0.437256,18.432617,21.850584,1.281738"
"0.155518,-0.804687,-0.516479,18.615723,23.376463,0.000000"
"0.170410,-0.895630,-0.586914,13.000487,23.986814,3.906250"
"0.161499,-0.905518,-0.584106,31.982420,17.822266,20.385740"
"0.119019,-0.711426,-0.508667,45.104977,17.211914,29.541014"
"0.056152,-0.504639,-0.485840,57.556149,22.949217,28.991697"
"0.056396,-0.501465,-0.485962,43.334957,29.174803,6.713867"
"0.109863,-0.721558,-0.541260,32.287598,33.264160,-2.624511"
"0.144775,-0.835815,-0.630005,34.301758,38.269043,-0.854492"
"0.134399,-0.763550,-0.652832,45.959469,33.386230,12.878417"
"0.102905,-0.622559,-0.639526,40.832516,26.550291,10.925292"
"0.094360,-0.572388,-0.622681,41.809078,25.634764,8.239746"
"0.069458,-0.526245,-0.579468,51.208492,26.672361,1.342773"
"0.070557,-0.579834,-0.580200,40.832516,34.606934,-9.521484"
"0.077881,-0.789429,-0.643921,31.005857,37.170410,-8.972168"
"0.060791,-0.811035,-0.655884,30.029295,34.606934,-2.868652"
"0.081055,-0.674316,-0.696899,20.874022,33.447266,8.483887"
"0.085327,-0.622681,-0.726196,30.517576,35.705566,13.732909"
"0.038452,-0.461548,-0.721680,42.602535,34.973145,14.587401"
"0.003296,-0.421265,-0.721313,47.302242,31.982420,2.441406"
"0.003174,-0.524780,-0.719482,23.864744,28.381346,-16.784668"
"0.040283,-0.770874,-0.718872,12.573241,31.616209,-12.573241"
"0.036743,-0.740601,-0.774536,15.869140,34.484863,-2.563476"
"0.030518,-0.522461,-0.833130,22.033689,36.315918,11.474608"
"0.025635,-0.476318,-0.840088,17.028809,31.066893,3.295898"
"0.003052,-0.487915,-0.821533,15.319823,28.625486,-2.319336"
"-0.035522,-0.514160,-0.840454,15.563964,28.015135,-9.338379"
"-0.034424,-0.548828,-0.859009,6.713867,28.991697,-13.671874"
"0.008423,-0.649658,-0.903931,-0.488281,28.686522,-14.099120"
"0.004883,-0.614990,-0.912354,-0.122070,24.353025,-8.056641"
"-0.021118,-0.550537,-0.907349,5.432128,18.737793,-5.554199"
"-0.052856,-0.530762,-0.915405,-1.708984,13.854980,-14.526366"
"-0.033203,-0.673950,-0.869751,-1.953125,12.023925,-17.456055"
"-0.025024,-0.671021,-0.850098,6.164550,15.441894,-10.864257"
"-0.025146,-0.572998,-0.881958,8.361816,19.226074,-4.821777"
"-0.027588,-0.556885,-0.905884,5.004883,16.052246,-8.483887"
"-0.040894,-0.553589,-0.893799,3.295898,12.023925,-10.498046"
"-0.052246,-0.557861,-0.816040,-1.647949,5.554199,-14.282226"
"-0.059814,-0.562134,-0.759277,-2.807617,6.835937,-18.249512"
"-0.054443,-0.584839,-0.773682,-2.624511,13.488769,-22.094725"
"-0.053833,-0.629028,-0.836060,0.244141,15.747069,-21.972654"
"-0.048096,-0.616089,-0.911499,8.422852,16.296387,-18.981934"
"-0.052612,-0.619263,-0.952148,13.610839,10.070800,-17.028809"
"-0.094971,-0.598999,-0.880249,17.883301,2.807617,-15.869140"
"-0.108887,-0.566040,-0.721802,20.629881,-4.333496,-16.540527"
"-0.099487,-0.579590,-0.705200,9.399414,6.896972,-20.080564"
""
"-0.128418,-0.685181,-0.861084,-43.212887,-31.982420,-17.272949"
"-0.165039,-0.508667,-0.760254,-25.207518,-33.874512,-6.286621"
"-0.150757,-0.506714,-0.773071,-26.794432,-26.550291,-13.488769"
"-0.137817,-0.558105,-0.805664,-31.372068,-19.348145,-20.080564"
"-0.098511,-0.642700,-0.881348,-33.081055,-20.080564,-17.578125"
"-0.085327,-0.697876,-0.890991,-32.348633,-23.925779,-13.854980"
"-0.095947,-0.697754,-0.844849,-34.423828,-31.860350,-5.065917"
"-0.153198,-0.644409,-0.728027,-41.259762,-30.395506,-1.037598"
"-0.159668,-0.617554,-0.693726,-45.837399,-25.207518,-2.136230"
"-0.109497,-0.666626,-0.768555,-46.203609,-13.854980,-5.004883"
"-0.107178,-0.693970,-0.758057,-29.052732,-15.014647,-4.028320"
"-0.099121,-0.716064,-0.740967,-30.212400,-16.601562,-0.854492"
"-0.084961,-0.772339,-0.752075,-34.057617,-14.587401,7.568359"
"-0.080688,-0.741943,-0.753662,-33.630371,-14.831542,12.329101"
"-0.093506,-0.673462,-0.701782,-25.817869,-16.357422,16.967773"
"-0.093628,-0.634644,-0.682251,-20.141600,-12.512206,14.587401"
"-0.088135,-0.630371,-0.714478,-28.808592,-8.789063,7.568359"
"-0.052734,-0.739868,-0.739746,-37.170410,-11.413573,3.662109"
"-0.040405,-0.814697,-0.677246,-48.034664,-18.066406,6.469726"
"-0.048706,-0.779297,-0.669556,-53.161617,-15.747069,16.357422"
"-0.045898,-0.731079,-0.710083,-52.551266,-17.883301,17.089844"
"-0.038940,-0.694580,-0.636108,-48.828121,-21.911619,15.441894"
"-0.027344,-0.730835,-0.564575,-46.264645,-23.376463,10.253905"
"-0.027588,-0.752319,-0.570435,-56.823727,-17.272949,8.300781"
"-0.010254,-0.815552,-0.591797,-57.373043,-17.150879,9.704590"
"-0.000488,-0.796509,-0.568115,-56.640621,-17.700195,11.596679"
"0.001831,-0.783936,-0.550781,-53.466793,-17.028809,13.122558"
"0.002319,-0.772339,-0.533569,-46.630856,-17.822266,12.817382"
"0.005981,-0.808472,-0.479370,-46.936031,-17.700195,11.535644"
"0.023682,-0.873047,-0.440796,-44.433590,-13.488769,12.451171"
"0.031494,-0.863037,-0.467041,-41.137691,-5.126953,18.493652"
"0.046265,-0.814087,-0.552856,-36.621094,-5.065917,20.324705"
"0.034180,-0.813232,-0.512817,-33.752441,-9.033203,19.775391"
"0.020996,-0.791504,-0.431763,-29.541014,-11.962890,19.836426"
"0.056519,-0.826050,-0.426147,-13.610839,-8.117676,14.892577"
"0.066406,-0.861328,-0.425537,-13.427733,-4.211426,13.916015"
"0.071411,-0.885864,-0.417847,-12.817382,-1.647949,16.235352"
"0.076660,-0.882690,-0.462158,-12.756347,4.699707,21.240232"
"0.074097,-0.838867,-0.496826,-13.122558,5.981445,25.512693"
"0.068115,-0.795776,-0.483032,-7.995605,0.549316,25.207518"
"0.074341,-0.782104,-0.423096,-5.798339,-1.525879,21.728514"
"0.084717,-0.857788,-0.401123,-5.737304,-0.732422,16.540527"
"0.095459,-0.896240,-0.427856,-10.864257,4.333496,19.714355"
"0.099609,-0.897705,-0.448730,-7.995605,6.774902,25.634764"
"0.114380,-0.857056,-0.473267,-5.554199,5.187988,31.738279"
"0.125977,-0.776978,-0.480347,-3.723144,4.211426,33.691406"
"0.085327,-0.642456,-0.441650,3.906250,-0.305176,30.456541"
"0.089478,-0.635132,-0.409058,4.943848,-0.610352,14.953612"
"0.128418,-0.766357,-0.425049,-4.394531,3.417969,7.568359"
"0.138428,-0.920166,-0.484619,-15.136718,6.774902,2.868652"
"0.157471,-0.931030,-0.500488,-3.845215,2.136230,13.854980"
"0.172852,-0.889282,-0.519409,-0.122070,-0.061035,26.672361"
"0.114624,-0.737793,-0.460693,7.080078,-1.037598,31.066893"
"0.101563,-0.651123,-0.396606,15.930175,2.197266,27.648924"
"0.114624,-0.660400,-0.393188,1.342773,10.070800,14.709472"
"0.129517,-0.742432,-0.418823,-10.375976,17.761230,7.080078"
"0.143921,-0.785156,-0.483765,-9.948730,20.629881,7.141113"
"0.161621,-0.810669,-0.547485,4.028320,20.202635,10.437011"
"0.153320,-0.796631,-0.552002,25.451658,11.779784,17.395020"
"0.120117,-0.657227,-0.490112,34.729004,6.530761,18.249512"
"0.117432,-0.627319,-0.462158,28.259275,8.544922,10.986327"
"0.148804,-0.775879,-0.449219,28.564451,14.465331,2.441406"
"0.135986,-0.778076,-0.478271,43.762203,27.221678,11.047362"
"0.121948,-0.742798,-0.524414,42.175289,35.156250,17.028809"
"0.121826,-0.692505,-0.614990,37.231445,34.118652,16.235352"
"0.130493,-0.710815,-0.634644,33.386230,27.465818,12.939452"
"0.126343,-0.698242,-0.619141,42.480465,21.179197,15.624999"
"0.118164,-0.652222,-0.564941,51.635738,22.033689,16.113281"
"0.095947,-0.599609,-0.535400,49.743649,25.329588,14.099120"
"0.110840,-0.723022,-0.610840,31.372068,35.156250,5.493164"
"0.117432,-0.790161,-0.648437,22.460936,36.560059,7.385253"
"0.123169,-0.766357,-0.700317,21.728514,34.973145,12.939452"
"0.134399,-0.670166,-0.738159,25.329588,30.334471,21.362303"
"0.116699,-0.538696,-0.746094,32.653809,23.559568,23.071287"
"0.084595,-0.477173,-0.707642,43.457027,14.038085,14.099120"
"0.074829,-0.514526,-0.626709,40.222164,13.488769,5.004883"
"0.120850,-0.740479,-0.679932,22.521971,22.949217,-8.728027"
"0.138428,-0.807861,-0.729370,23.376463,30.334471,0.244141"
"0.121582,-0.706299,-0.792725,30.334471,26.123045,13.305663"
"0.084473,-0.571777,-0.758911,30.273436,21.911619,13.183593"
"0.061035,-0.515625,-0.701050,25.878904,18.737793,6.164550"
"0.071655,-0.539673,-0.703003,14.587401,25.573729,-4.760742"
"0.108032,-0.648804,-0.778198,8.300781,29.479979,-7.507324"
"0.113892,-0.708252,-0.830688,6.713867,29.541014,-4.516602"
"0.114624,-0.719849,-0.815796,14.892577,21.850584,2.990722"
"0.086426,-0.669556,-0.742310,16.906738,16.662598,9.216309"
"0.036621,-0.545166,-0.663086,15.563964,16.906738,8.728027"
"0.038330,-0.484497,-0.684692,11.047362,25.146482,0.366211"
"0.051147,-0.520142,-0.713867,5.004883,31.921385,-12.023925"
"0.067505,-0.613281,-0.762817,6.286621,33.142090,-14.282226"
"0.037720,-0.631714,-0.848877,12.512206,32.714844,-11.901855"
"0.012207,-0.671265,-0.839233,11.291503,22.460936,-11.657714"
"0.016357,-0.671143,-0.812012,11.169433,15.686034,-8.850098"
"0.022827,-0.633179,-0.835327,11.291503,16.357422,-6.591796"
"-0.005737,-0.575317,-0.820068,17.211914,14.465331,-4.211426"
"-0.011353,-0.562012,-0.795776,9.826660,14.221190,-8.361816"
"-0.003540,-0.591675,-0.803101,-9.765625,16.357422,-15.563964"
"-0.011230,-0.658325,-0.834351,-13.000487,15.380858,-16.662598"
"-0.020020,-0.682983,-0.810913,0.061035,11.230468,-12.756347"
"-0.018433,-0.669800,-0.792236,6.103515,13.183593,-7.080078"
"-0.009155,-0.632690,-0.802368,8.789063,20.812986,-2.807617"
"-0.011353,-0.551514,-0.859497,8.300781,22.521971,-1.464844"
"-0.038574,-0.486328,-0.847412,6.164550,16.967773,-5.126953"
"-0.047607,-0.483643,-0.813843,0.244141,10.681151,-14.892577"
"-0.038696,-0.576172,-0.808838,-3.662109,11.291503,-19.653320"
"-0.030151,-0.653198,-0.834106,-4.089355,12.084960,-20.507811"
"-0.038330,-0.630005,-0.831299,7.202148,9.521484,-13.610839"
"-0.063721,-0.546387,-0.839478,11.352538,8.850098,-12.573241"
"-0.061890,-0.625977,-0.865967,13.427733,7.324218,-17.089844"
"-0.070312,-0.656982,-0.852905,18.981934,3.234863,-14.648437"
"-0.087891,-0.625244,-0.785156,19.348145,3.356933,-11.840819"
"-0.080933,-0.568481,-0.761108,14.404296,5.737304,-12.390136"
"-0.095581,-0.578003,-0.821899,-9.399414,9.643555,-23.620604"
"-0.090210,-0.646973,-0.819702,5.249023,10.192870,-20.996092"
"-0.075439,-0.572876,-0.810913,18.249512,13.061522,-14.282226"
"-0.073364,-0.569580,-0.859375,31.860350,19.165039,-14.038085"
"-0.079834,-0.560913,-0.882446,43.579098,10.375976,-12.695312"
"-0.108398,-0.542114,-0.846680,48.278805,4.699707,-13.671874"
"-0.119141,-0.605469,-0.855103,43.395992,7.812500,-15.380858"
"-0.109375,-0.631714,-0.905762,30.212400,10.925292,-13.183593"
"-0.101807,-0.519897,-0.912964,27.282713,6.896972,-6.591796"
"-0.103027,-0.468018,-0.899902,25.756834,5.981445,-8.850098"
"-0.106201,-0.424805,-0.895996,14.160155,7.812500,-16.052246"
"-0.142456,-0.465088,-0.896118,8.544922,5.676269,-20.202635"
"-0.129395,-0.513550,-0.868286,3.173828,0.061035,-24.475096"
"-0.108154,-0.544678,-0.889648,-8.666992,5.126953,-23.315428"
"-0.095703,-0.537476,-0.923828,-0.793457,4.821777,-16.662598"
"-0.114624,-0.416260,-0.920410,7.080078,2.136230,-15.869140"
""
"-0.110718,-0.653320,-0.831909,-37.292480,-4.821777,-10.070800"
"-0.123047,-0.712280,-0.790894,-35.949707,-10.803222,-11.596679"
"-0.117554,-0.767334,-0.764282,-30.761717,-16.296387,-9.216309"
"-0.107666,-0.776978,-0.765381,-29.602049,-17.761230,-1.525879"
"-0.119263,-0.753296,-0.751831,-24.902342,-20.568846,5.676269"
"-0.138550,-0.719849,-0.707397,-24.597166,-20.935057,7.263183"
"-0.120117,-0.725952,-0.702271,-24.902342,-20.019531,7.141113"
"-0.097046,-0.763184,-0.724609,-29.052732,-18.920898,6.408691"
"-0.089844,-0.790283,-0.726929,-36.743164,-22.583006,8.728027"
"-0.088623,-0.803955,-0.683472,-38.085937,-25.207518,11.901855"
"-0.104736,-0.728149,-0.648071,-40.039062,-26.733397,17.639160"
"-0.092773,-0.755127,-0.624268,-49.560543,-25.878904,14.770507"
"-0.078491,-0.774292,-0.604370,-48.034664,-24.841307,14.221190"
"-0.047607,-0.771606,-0.578613,-45.898434,-22.949217,15.319823"
"-0.022095,-0.810059,-0.643066,-54.565426,-16.845703,16.601562"
"-0.024780,-0.803345,-0.656982,-48.522945,-19.531250,21.179197"
"-0.036621,-0.731445,-0.598267,-42.907711,-23.925779,21.362303"
"-0.015503,-0.726929,-0.510254,-44.982906,-23.376463,19.348145"
"-0.000122,-0.771606,-0.481689,-54.992672,-16.967773,15.808105"
"-0.000366,-0.788208,-0.471436,-53.955074,-12.939452,15.014647"
"0.012085,-0.813110,-0.479248,-48.645016,-9.948730,15.502929"
"0.041626,-0.867798,-0.510376,-51.940914,-7.324218,16.723633"
"0.060059,-0.864990,-0.515869,-54.504391,-4.272461,24.719236"
"0.060181,-0.757812,-0.489868,-50.903316,-4.028320,32.043457"
"0.073364,-0.744385,-0.470947,-22.094725,-4.272461,23.315428"
"0.082275,-0.803101,-0.462646,-19.287109,-0.244141,19.409180"
"0.078735,-0.815918,-0.465210,-18.859863,0.366211,19.958496"
"0.116821,-0.915649,-0.433350,-15.930175,0.854492,19.592285"
"0.126465,-0.977051,-0.423706,-9.277344,4.516602,27.893064"
"0.089355,-0.875366,-0.408325,4.028320,4.699707,40.344234"
"0.074219,-0.753174,-0.375122,0.122070,5.371093,38.940430"
"0.106812,-0.776978,-0.397705,-7.080078,10.253905,30.090330"
"0.111572,-0.794922,-0.443848,-3.784179,12.451171,26.245115"
"0.135864,-0.830444,-0.528076,-2.685547,5.004883,28.198240"
"0.143555,-0.866943,-0.500732,2.319336,-1.647949,30.212400"
"0.116943,-0.759644,-0.366821,15.563964,-10.559081,35.827637"
"0.107178,-0.700806,-0.324829,8.789063,-2.136230,32.348633"
"0.108276,-0.665283,-0.353516,-5.615234,12.878417,20.568846"
"0.142334,-0.734009,-0.472168,-9.155273,17.333984,15.441894"
"0.195312,-0.857788,-0.563232,-11.291503,17.089844,12.695312"
"0.197632,-0.875732,-0.567383,9.887695,6.591796,22.521971"
"0.156616,-0.746338,-0.473999,19.104004,0.671387,27.526854"
"0.110962,-0.685547,-0.418945,15.624999,-3.479004,24.597166"
"0.100952,-0.694824,-0.392334,16.662598,-2.258301,15.319823"
"0.125610,-0.703125,-0.382202,6.652832,7.690429,8.117676"
"0.173584,-0.806396,-0.468384,-0.854492,15.075683,6.530761"
"0.181519,-0.844482,-0.535767,-2.380371,24.230955,14.221190"
"0.174438,-0.783813,-0.522095,5.310058,23.864744,23.132322"
"0.133423,-0.754639,-0.510986,3.967285,18.981934,19.714355"
"0.109619,-0.712646,-0.393311,16.296387,17.517090,20.690916"
"0.100586,-0.649292,-0.412598,31.677244,33.020020,18.310547"
"0.136719,-0.795166,-0.563477,19.104004,47.241207,7.751464"
"0.147705,-0.871582,-0.609985,25.024412,45.104977,13.061522"
"0.159668,-0.836670,-0.626709,32.897949,38.696289,28.686522"
"0.130981,-0.689697,-0.563965,33.935547,34.912109,31.982420"
"0.110107,-0.571167,-0.486206,27.160643,33.508301,20.690916"
"0.122559,-0.635864,-0.549316,19.165039,39.733887,8.300781"
"0.140869,-0.704956,-0.602173,7.141113,43.762203,4.028320"
"0.139893,-0.804687,-0.684814,7.080078,42.175289,6.896972"
"0.127808,-0.739380,-0.634888,17.395020,32.592773,17.700195"
"0.116455,-0.677368,-0.611938,22.155760,29.479979,21.362303"
"0.097778,-0.613525,-0.592651,25.634764,33.203125,16.296387"
"0.096191,-0.551880,-0.661011,26.245115,35.400391,13.000487"
"0.085693,-0.574219,-0.729370,19.653320,31.921385,1.586914"
"0.094238,-0.639771,-0.702393,23.010252,23.010252,-5.310058"
"0.093750,-0.728516,-0.638550,27.160643,23.010252,-2.990722"
"0.049438,-0.702637,-0.611450,22.094725,28.808592,3.967285"
"0.047241,-0.693359,-0.632812,4.943848,41.870113,6.042480"
"0.088745,-0.677856,-0.769775,-0.793457,51.513668,8.789063"
"0.100586,-0.645996,-0.882812,1.892090,48.706051,11.047362"
"0.059692,-0.560303,-0.813721,8.911133,31.249998,13.854980"
"0.034790,-0.526855,-0.752930,12.756347,20.996092,8.117676"
"0.035034,-0.557129,-0.684082,10.864257,25.756834,-3.051758"
"0.053345,-0.633789,-0.719849,11.413573,29.052732,-5.981445"
"0.073608,-0.625244,-0.787842,6.225585,33.081055,-6.347656"
"0.077148,-0.618774,-0.848755,0.366211,33.020020,-6.225585"
"0.056152,-0.600464,-0.893433,4.455566,27.832029,-6.652832"
"0.031006,-0.618652,-0.828003,18.432617,16.113281,-9.399414"
"0.025391,-0.631470,-0.798706,22.949217,14.587401,-12.084960"
"0.027710,-0.641602,-0.793335,13.916015,16.296387,-15.319823"
"0.048706,-0.703613,-0.817383,11.169433,16.357422,-16.235352"
"0.030029,-0.688110,-0.824463,18.066406,13.305663,-11.840819"
"-0.010864,-0.600342,-0.765259,22.521971,11.474608,-7.385253"
"-0.011353,-0.571167,-0.756714,3.662109,16.357422,-12.573241"
"0.019287,-0.626953,-0.823730,-5.615234,18.737793,-19.348145"
"0.013062,-0.659546,-0.850830,0.976562,15.686034,-18.859863"
"-0.008057,-0.644043,-0.831909,21.057127,7.934570,-16.601562"
"-0.015259,-0.669189,-0.810791,30.090330,2.868652,-16.235352"
"-0.036743,-0.645386,-0.736938,28.015135,7.019042,-12.634276"
"-0.036377,-0.574829,-0.727295,21.118162,13.000487,-13.793944"
"-0.019775,-0.606567,-0.836304,8.178711,21.728514,-20.019531"
"-0.018066,-0.626099,-0.897461,8.544922,15.563964,-22.277830"
"-0.050171,-0.632324,-0.912109,12.084960,7.751464,-22.277830"
"-0.080322,-0.674561,-0.755249,17.883301,-4.516602,-21.972654"
"-0.069580,-0.684814,-0.706543,8.728027,2.868652,-18.005371"
"-0.071533,-0.629639,-0.721069,2.807617,13.000487,-13.732909"
"-0.061890,-0.553223,-0.808716,-0.488281,15.686034,-15.808105"
"-0.057617,-0.647095,-0.881958,4.516602,10.192870,-23.254393"
"-0.066040,-0.679077,-0.852905,15.747069,-4.272461,-21.484373"
"-0.082886,-0.671509,-0.744263,10.070800,-7.263183,-15.258788"
"-0.090332,-0.588501,-0.734009,-10.009766,-3.967285,-17.883301"
"-0.096313,-0.709595,-0.707886,-48.706051,-6.103515,-34.118652"
"-0.091309,-0.717896,-0.692261,-8.483887,2.380371,-19.470215"
"-0.090820,-0.592407,-0.804443,23.132322,10.559081,-15.258788"
"-0.099243,-0.636230,-0.809937,30.578611,7.995605,-16.662598"
"-0.113403,-0.597412,-0.729248,42.419430,-0.976562,-14.038085"
"-0.110352,-0.578003,-0.713501,43.823238,4.150391,-15.502929"
"-0.120483,-0.629761,-0.786865,43.090816,8.544922,-17.211914"
"-0.118774,-0.638184,-0.835937,47.180172,11.169433,-15.014647"
"-0.115845,-0.615845,-0.896851,36.560059,11.047362,-12.268065"
"-0.111938,-0.562622,-0.955078,16.662598,-1.892090,-14.526366"
"-0.124390,-0.561401,-0.874634,13.549804,-8.056641,-14.587401"
"-0.144409,-0.498779,-0.772705,22.155760,-7.507324,-13.061522"
"-0.155151,-0.471191,-0.778931,22.949217,4.211426,-18.066406"
"-0.152100,-0.487427,-0.827393,6.347656,10.620116,-27.648924"
"-0.119751,-0.602173,-0.938721,-4.333496,11.474608,-30.395506"
"-0.102783,-0.676514,-1.005127,-10.314940,6.042480,-24.536131"
"-0.129639,-0.628540,-0.980957,-0.854492,-6.225585,-11.047362"
"-0.177856,-0.495850,-0.900635,1.464844,-10.803222,-8.972168"
"-0.192139,-0.492798,-0.849121,9.155273,-16.540527,-14.648437"
"-0.188354,-0.479980,-0.783203,13.549804,-16.601562,-18.737793"
"-0.176758,-0.480713,-0.795532,8.666992,-8.178711,-22.644041"
"-0.140503,-0.576538,-0.869751,5.981445,-5.004883,-24.658201"
"-0.122192,-0.678955,-0.901001,0.976562,-5.981445,-19.592285"
"-0.125122,-0.652710,-0.893188,0.610352,-10.681151,-4.699707"
"-0.157349,-0.482544,-0.866089,0.244141,-11.352538,-1.770019"
"-0.169556,-0.391724,-0.905151,-8.728027,-14.221190,-14.038085"
"-0.176758,-0.461060,-0.944458,-19.714355,-22.705076,-26.672361"
""
"-0.000732,-0.770142,-0.675049,-56.640621,-23.803709,7.873535"
"-0.003174,-0.799438,-0.640137,-52.246090,-26.550291,13.244628"
"-0.016968,-0.732666,-0.585327,-48.950191,-26.794432,13.977050"
"0.000732,-0.756836,-0.567749,-49.377438,-23.071287,10.009766"
"0.023804,-0.830200,-0.553223,-53.039547,-19.287109,8.422852"
"0.033203,-0.847656,-0.546265,-54.443356,-15.808105,13.244628"
"0.041382,-0.836060,-0.576904,-52.734371,-13.977050,16.357422"
"0.028564,-0.760498,-0.565063,-38.452148,-15.441894,20.446775"
"0.030884,-0.751343,-0.552002,-34.362793,-16.662598,17.761230"
"0.055664,-0.770386,-0.551514,-32.897949,-16.418457,15.136718"
"0.068481,-0.826782,-0.520142,-30.700682,-17.395020,13.916015"
"0.079224,-0.852051,-0.476196,-29.418943,-16.296387,15.502929"
"0.081055,-0.835693,-0.478516,-36.865234,-10.375976,18.310547"
"0.104858,-0.834351,-0.501953,-39.855957,-7.690429,16.662598"
"0.115479,-0.851929,-0.522827,-38.757324,-7.812500,17.517090"
"0.118530,-0.808716,-0.489014,-17.822266,-9.033203,21.301268"
"0.113525,-0.809814,-0.461914,-8.789063,-9.521484,20.141600"
"0.106567,-0.816162,-0.436890,-9.704590,-10.437011,18.432617"
"0.115112,-0.844360,-0.389160,-10.925292,-8.544922,17.944336"
"0.128662,-0.865845,-0.404907,-11.291503,-0.366211,19.897461"
"0.131714,-0.849731,-0.408936,-6.958007,5.249023,23.925779"
"0.145996,-0.834717,-0.457764,-9.765625,8.483887,24.291990"
"0.143555,-0.803711,-0.473389,-7.324218,6.469726,25.146482"
"0.126587,-0.749023,-0.447754,5.920410,1.403808,24.963377"
"0.120605,-0.762573,-0.423096,8.972168,-0.671387,19.897461"
"0.132202,-0.811523,-0.372925,6.958007,0.915527,18.920898"
"0.158203,-0.824463,-0.423584,-0.793457,8.361816,20.690916"
"0.172852,-0.808105,-0.463135,-0.793457,9.704590,24.719236"
"0.160278,-0.739258,-0.473511,4.516602,3.173828,26.245115"
"0.144165,-0.652466,-0.406372,6.774902,2.380371,23.864744"
"0.147217,-0.693604,-0.426392,1.525879,11.230468,14.892577"
"0.165405,-0.765259,-0.445923,-1.708984,20.141600,11.413573"
"0.174316,-0.818726,-0.453125,3.540039,21.911619,14.953612"
"0.141846,-0.702881,-0.457764,13.122558,23.254393,22.766111"
"0.148193,-0.677368,-0.484985,4.089355,25.268553,19.104004"
"0.155151,-0.663574,-0.582642,-4.028320,24.719236,11.596679"
"0.134399,-0.658936,-0.604004,10.864257,17.944336,12.878417"
"0.130859,-0.633301,-0.467651,43.334957,9.765625,13.305663"
"0.137451,-0.685303,-0.463745,40.283199,20.141600,8.483887"
"0.148804,-0.721680,-0.536987,39.306641,24.719236,9.765625"
"0.162476,-0.710693,-0.643433,35.583496,30.151365,13.732909"
"0.144409,-0.702148,-0.646118,39.672852,24.597166,16.967773"
"0.137329,-0.666748,-0.603638,49.072262,17.517090,18.676758"
"0.109619,-0.571533,-0.533203,46.936031,17.517090,16.540527"
"0.094116,-0.622925,-0.500122,31.799314,20.629881,5.859375"
"0.116455,-0.689331,-0.523071,17.700195,31.738279,2.075195"
"0.149414,-0.743286,-0.648926,21.850584,40.771481,10.986327"
"0.156738,-0.669434,-0.753784,26.794432,39.550781,15.014647"
"0.131348,-0.647095,-0.709961,36.560059,26.733397,15.930175"
"0.118286,-0.651001,-0.645020,33.142090,19.470215,15.258788"
"0.118652,-0.626465,-0.611694,28.137205,22.399900,14.526366"
"0.125000,-0.578003,-0.666992,28.503416,30.639647,11.779784"
"0.133545,-0.556641,-0.705322,32.226562,32.348633,6.652832"
"0.143921,-0.575073,-0.773071,31.616209,26.062010,1.281738"
"0.117676,-0.645752,-0.742920,31.555174,23.010252,-0.061035"
"0.099854,-0.678833,-0.703491,35.217285,24.902342,3.479004"
"0.108032,-0.671875,-0.730591,26.550291,33.325195,8.300781"
"0.128418,-0.679810,-0.816895,23.376463,34.057617,9.582520"
"0.115479,-0.596680,-0.775024,28.381346,25.573729,14.526366"
"0.093262,-0.526245,-0.732178,36.987305,20.690916,13.854980"
"0.056152,-0.463501,-0.690674,34.423828,27.404783,2.319336"
"0.083984,-0.601929,-0.827026,27.099607,32.287598,-3.417969"
"0.107788,-0.778687,-0.894165,15.624999,29.663084,-3.356933"
"0.100098,-0.765015,-0.851807,19.104004,20.568846,13.183593"
"0.089355,-0.604248,-0.797485,18.493652,20.324705,19.226074"
"0.062744,-0.496460,-0.776733,13.488769,22.033689,20.080564"
"0.045654,-0.430664,-0.760986,21.057127,27.099607,16.357422"
"0.044312,-0.360596,-0.807617,18.066406,34.362793,1.281738"
"0.079590,-0.505371,-0.912720,15.441894,35.339355,-5.920410"
"0.079224,-0.588867,-0.927490,14.892577,29.907225,-7.690429"
"0.061157,-0.566406,-0.894653,15.624999,24.291990,-1.586914"
"0.038452,-0.493530,-0.854736,13.793944,25.085447,-0.610352"
"0.015259,-0.436646,-0.860596,9.704590,27.343748,-4.333496"
"0.004761,-0.424194,-0.848267,10.192870,27.526854,-12.756347"
"0.019165,-0.454712,-0.911987,6.896972,29.235838,-17.150879"
"0.026611,-0.527954,-0.973267,2.014160,25.878904,-22.277830"
"0.028076,-0.565796,-0.972290,4.577637,18.493652,-19.897461"
"0.002930,-0.620728,-0.947388,12.268065,10.864257,-12.084960"
"-0.033569,-0.543823,-0.813965,17.578125,9.033203,-8.605957"
"-0.029297,-0.506348,-0.807373,13.977050,18.188477,-9.216309"
"-0.024780,-0.521362,-0.840942,8.361816,24.108885,-13.671874"
"-0.026611,-0.529785,-0.886963,12.084960,23.681639,-13.061522"
"-0.047363,-0.537109,-0.937988,13.732909,21.972654,-12.695312"
"-0.038696,-0.557129,-0.925415,15.624999,14.221190,-11.169433"
"-0.043823,-0.531006,-0.868652,21.118162,8.300781,-7.690429"
"-0.052002,-0.470703,-0.804321,21.667479,12.756347,-10.253905"
"-0.086548,-0.442993,-0.835937,18.737793,15.319823,-13.244628"
"-0.072266,-0.516968,-0.916382,11.047362,18.981934,-20.385740"
"-0.060791,-0.556274,-0.974487,11.657714,14.892577,-20.141600"
"-0.040771,-0.568237,-0.991455,5.432128,2.075195,-16.418457"
"-0.096680,-0.536621,-0.905273,-3.540039,-4.333496,-19.897461"
"-0.130493,-0.476685,-0.740112,25.512693,-3.417969,-14.160155"
"-0.128662,-0.399536,-0.801270,36.926270,14.770507,-13.488769"
"-0.097168,-0.496582,-0.937378,25.512693,15.624999,-21.911619"
"-0.090454,-0.493042,-1.028809,29.602049,9.704590,-19.165039"
"-0.096924,-0.498413,-0.905640,33.081055,-6.530761,-19.104004"
"-0.093018,-0.553467,-0.877563,19.165039,-2.746582,-18.432617"
"-0.107300,-0.535645,-0.903198,18.798828,1.098633,-13.793944"
"-0.154541,-0.375000,-0.882812,18.859863,5.432128,-9.277344"
"-0.154663,-0.355713,-0.912842,3.112793,13.671874,-17.761230"
"-0.126587,-0.428467,-1.067261,-4.028320,8.483887,-23.376463"
"-0.082031,-0.465454,-1.070190,-0.122070,-1.464844,-22.705076"
"-0.112427,-0.429443,-0.908569,11.169433,-17.089844,-18.371582"
"-0.139282,-0.377563,-0.821411,20.446775,-15.441894,-16.967773"
"-0.152344,-0.333008,-0.801880,12.939452,-8.850098,-21.240232"
"-0.138672,-0.430054,-0.868164,-5.065917,1.647949,-32.043457"
"-0.107910,-0.477539,-0.935181,-9.643555,6.103515,-31.494139"
"-0.109741,-0.469360,-0.958496,-9.521484,4.089355,-25.390623"
"-0.119141,-0.447021,-0.938232,-3.967285,-3.540039,-22.399900"
"-0.134888,-0.409302,-0.893188,0.549316,-5.126953,-22.277830"
"-0.151855,-0.425415,-0.909546,-4.760742,-4.943848,-26.000975"
"-0.138306,-0.475464,-0.945801,-8.789063,-7.751464,-28.320311"
"-0.130493,-0.502441,-0.977173,-6.408691,-10.681151,-25.573729"
"-0.125244,-0.514160,-1.002441,-5.737304,-19.348145,-18.615723"
"-0.127808,-0.468872,-0.934204,-4.760742,-23.132322,-15.441894"
"-0.129395,-0.414795,-0.923706,-8.056641,-23.437498,-13.977050"
"-0.139282,-0.334595,-0.927368,-34.729004,-27.221678,-24.047850"
"-0.145142,-0.393066,-0.874390,-38.452148,-32.470703,-41.198727"
"-0.126587,-0.485718,-0.835449,-27.404783,-25.573729,-39.001465"
"-0.098755,-0.549805,-1.010620,-16.906738,-10.986327,-35.217285"
"-0.101074,-0.635376,-0.935425,-1.647949,-18.066406,-30.456541"
"-0.100464,-0.637695,-0.900391,11.169433,-15.991210,-17.089844"
"-0.122681,-0.526855,-0.976196,7.019042,-20.263670,-10.803222"
"-0.143921,-0.431885,-0.957520,5.737304,-29.541014,-13.732909"
"-0.130371,-0.467285,-0.864380,-3.662109,-36.865234,-25.390623"
"-0.095093,-0.598877,-0.917480,-18.798828,-27.404783,-32.043457"
"-0.083618,-0.629761,-0.937134,-24.841307,-26.184080,-25.573729"
"-0.074829,-0.650024,-0.918213,-36.987305,-29.541014,-15.380858"
""
"0.104004,-0.833008,-0.395508,-19.348145,-5.371093,14.343261"
"0.121216,-0.873169,-0.406738,-24.658201,3.417969,14.160155"
"0.144043,-0.933472,-0.462646,-23.498533,11.840819,22.155760"
"0.133179,-0.905640,-0.528076,-17.395020,12.329101,28.381346"
"0.124756,-0.772217,-0.477661,-0.488281,5.920410,37.170410"
"0.117920,-0.706421,-0.439087,-0.427246,4.089355,32.226562"
"0.116211,-0.705444,-0.433594,-4.211426,3.356933,21.545408"
"0.134888,-0.775024,-0.403687,-7.019042,2.807617,16.967773"
"0.181274,-0.916260,-0.419067,-12.268065,8.178711,14.831542"
"0.198120,-0.961670,-0.452637,-13.244628,15.869140,27.832029"
"0.175659,-0.861450,-0.471436,-0.915527,13.610839,43.334957"
"0.145874,-0.683105,-0.428833,3.295898,12.268065,44.555660"
"0.134155,-0.630981,-0.395508,5.798339,11.596679,35.461426"
"0.142334,-0.673584,-0.385010,4.516602,14.343261,23.925779"
"0.170166,-0.745239,-0.409058,4.882812,17.395020,22.338865"
"0.220337,-0.809814,-0.515015,-2.197266,24.291990,23.925779"
"0.185181,-0.736694,-0.566162,-0.122070,21.667479,30.517576"
"0.158691,-0.652832,-0.535889,24.353025,7.019042,35.217285"
"0.140015,-0.510864,-0.429810,34.362793,4.211426,32.043457"
"0.148193,-0.553101,-0.432007,37.597656,11.962890,14.343261"
"0.153320,-0.628296,-0.460571,32.836914,18.920898,-0.366211"
"0.164307,-0.764404,-0.514038,34.484863,25.573729,2.380371"
"0.181152,-0.808960,-0.617920,36.071777,29.113768,8.178711"
"0.173584,-0.709351,-0.641846,41.870113,27.282713,21.362303"
"0.162720,-0.637573,-0.610962,49.072262,20.507811,24.719236"
"0.119141,-0.536865,-0.546753,49.133297,19.653320,21.606443"
"0.102417,-0.522095,-0.554565,42.236324,23.925779,10.986327"
"0.124756,-0.570801,-0.618286,30.212400,29.113768,-2.014160"
"0.141968,-0.739746,-0.691895,23.315428,27.038572,-5.737304"
"0.155518,-0.838623,-0.634155,19.348145,23.742674,1.464844"
"0.162109,-0.783691,-0.644897,20.141600,35.278320,21.850584"
"0.134277,-0.583496,-0.721313,26.855467,36.071777,26.367186"
"0.096191,-0.450562,-0.669678,32.470703,32.226562,22.094725"
"0.083618,-0.466064,-0.663452,34.240723,33.203125,6.347656"
"0.104858,-0.547485,-0.710449,29.052732,36.987305,-9.826660"
"0.145142,-0.761353,-0.818237,28.137205,35.034180,-12.084960"
"0.120972,-0.791382,-0.799683,25.695799,25.085447,-1.159668"
"0.107544,-0.739868,-0.770752,26.062010,25.268553,17.089844"
"0.109619,-0.575562,-0.786987,28.991697,31.372068,24.108885"
"0.067383,-0.452148,-0.748413,32.104492,29.785154,21.118162"
"0.059814,-0.426636,-0.751587,29.846189,31.249998,7.141113"
"0.077759,-0.502319,-0.812988,3.356933,35.766602,-10.437011"
"0.096191,-0.680298,-0.885376,3.417969,32.836914,-12.939452"
"0.097412,-0.662231,-0.905396,18.432617,24.536131,-5.249023"
"0.093628,-0.641846,-0.898682,24.780272,15.319823,1.037598"
"0.078857,-0.607788,-0.785400,27.526854,11.840819,2.990722"
"0.056519,-0.533081,-0.706665,25.817869,15.930175,4.211426"
"0.052612,-0.498657,-0.715454,17.639160,29.052732,-0.549316"
"0.057495,-0.509277,-0.841309,10.742187,34.606934,-8.117676"
"0.055908,-0.559814,-0.898071,5.920410,31.127928,-11.779784"
"0.085571,-0.673950,-0.915161,-3.051758,24.719236,-14.038085"
"0.077515,-0.670654,-0.909302,12.023925,19.165039,-3.723144"
"0.030762,-0.541870,-0.832397,20.385740,14.953612,-0.183105"
"0.008789,-0.496826,-0.807007,15.319823,17.028809,-4.272461"
"0.041016,-0.600220,-0.879761,1.831055,23.071287,-13.244628"
"0.059692,-0.625732,-0.923706,-1.403808,21.667479,-11.230468"
"0.056763,-0.593628,-0.959595,1.892090,17.150879,-8.300781"
"0.015137,-0.540039,-0.872192,12.573241,4.272461,-5.249023"
"0.002563,-0.538330,-0.810425,11.962890,-0.976562,-8.483887"
"-0.003052,-0.566895,-0.731323,5.798339,8.422852,-10.131835"
"0.010010,-0.542480,-0.789185,4.333496,15.624999,-10.253905"
"0.031616,-0.554810,-0.927856,1.098633,21.423338,-13.427733"
"0.039673,-0.592896,-0.952759,4.760742,10.131835,-15.136718"
"0.010376,-0.620117,-0.880615,11.596679,3.295898,-12.817382"
"-0.039063,-0.597168,-0.748291,19.958496,-2.502441,-8.728027"
"-0.039063,-0.606812,-0.731201,11.474608,7.141113,-9.887695"
"-0.022339,-0.637939,-0.783447,8.117676,19.897461,-8.056641"
"0.007202,-0.597046,-0.908203,7.690429,21.484373,-6.408691"
"-0.009766,-0.573120,-0.883789,12.023925,9.704590,-5.493164"
"-0.027222,-0.568115,-0.810181,18.005371,0.122070,-4.821777"
"-0.048950,-0.559082,-0.720703,18.005371,2.868652,-4.577637"
"-0.032104,-0.541504,-0.760010,10.681151,14.465331,-4.638672"
"-0.036987,-0.512695,-0.787354,10.620116,19.165039,-4.272461"
"-0.060181,-0.445679,-0.847412,11.657714,18.737793,-8.850098"
"-0.066406,-0.506714,-0.901855,12.268065,16.540527,-12.390136"
"-0.055908,-0.507812,-0.893188,12.512206,11.047362,-15.136718"
"-0.065674,-0.544312,-0.886475,-4.333496,5.920410,-25.268553"
"-0.077393,-0.644897,-0.756592,7.446289,6.103515,-19.287109"
"-0.078491,-0.492798,-0.847290,29.479979,18.920898,-4.577637"
"-0.079224,-0.504761,-0.936646,24.597166,18.737793,-9.399414"
"-0.082642,-0.540405,-0.960327,26.794432,3.417969,-8.178711"
"-0.092163,-0.505981,-0.854370,27.648924,1.281738,-6.896972"
"-0.083862,-0.514771,-0.881958,19.897461,6.958007,-7.263183"
"-0.082764,-0.490845,-0.884888,19.042969,7.385253,-5.615234"
"-0.097656,-0.420532,-0.877441,18.188477,6.652832,-6.835937"
"-0.108032,-0.417114,-0.861084,18.554687,4.272461,-11.291503"
"-0.084106,-0.361450,-0.906860,16.845703,7.934570,-13.305663"
"-0.082031,-0.385620,-0.968872,3.417969,7.873535,-21.301268"
"-0.094727,-0.444946,-0.972168,4.211426,1.770019,-23.498533"
"-0.127563,-0.447021,-0.893433,13.549804,-7.141113,-24.230955"
"-0.136597,-0.465820,-0.851196,22.216795,-3.723144,-25.634764"
"-0.110596,-0.521606,-0.885010,21.179197,2.258301,-24.780272"
"-0.100342,-0.547485,-0.992554,16.052246,8.850098,-19.653320"
"-0.104492,-0.443359,-1.008911,18.920898,0.244141,-11.535644"
"-0.111694,-0.378418,-0.993774,15.014647,-11.474608,-13.427733"
"-0.154785,-0.329346,-0.893188,4.211426,-16.235352,-22.949217"
"-0.155151,-0.356567,-0.821899,-3.051758,-12.939452,-27.954100"
"-0.127563,-0.473389,-0.882568,-15.930175,-1.159668,-35.339355"
"-0.109863,-0.529419,-0.903442,-15.808105,3.051758,-31.555174"
"-0.104004,-0.539551,-0.925171,-14.648437,3.662109,-26.245115"
"-0.150757,-0.449341,-0.877197,-4.516602,0.610352,-17.150879"
"-0.163452,-0.381226,-0.851807,-0.793457,0.915527,-17.028809"
"-0.154541,-0.396729,-0.895874,-1.220703,4.150391,-24.169920"
"-0.120850,-0.457275,-0.995728,4.821777,-3.234863,-25.695799"
"-0.113647,-0.463623,-1.031738,3.112793,-9.399414,-24.963377"
"-0.130249,-0.491211,-0.976074,-1.586914,-23.559568,-23.315428"
"-0.138062,-0.497314,-0.914917,-0.915527,-28.564451,-17.456055"
"-0.143921,-0.487549,-0.872559,-7.080078,-22.705076,-11.230468"
"-0.144531,-0.370239,-0.855591,-12.634276,-21.667479,-10.437011"
"-0.136475,-0.403809,-0.921509,-44.006344,-21.972654,-27.954100"
"-0.123901,-0.512695,-0.888062,-28.259275,-25.695799,-33.020020"
"-0.110352,-0.493164,-0.893677,-4.150391,-17.517090,-22.949217"
"-0.106445,-0.554932,-0.921143,-3.295898,-17.883301,-23.986814"
"-0.104004,-0.636841,-0.875366,1.037598,-16.723633,-16.723633"
"-0.110474,-0.558472,-0.902466,14.953612,-13.305663,-1.831055"
"-0.136719,-0.372803,-0.930664,15.930175,-18.798828,-2.563476"
"-0.111450,-0.410645,-0.839844,3.540039,-30.273436,-15.808105"
"-0.081665,-0.459473,-0.869263,-2.685547,-20.690916,-20.202635"
"-0.082520,-0.447388,-0.913696,-1.953125,-14.831542,-20.324705"
"-0.091675,-0.456909,-0.934082,-7.446289,-17.272949,-22.521971"
"-0.083740,-0.537598,-0.919922,-22.705076,-22.583006,-24.597166"
"-0.101563,-0.505127,-0.882080,-27.893064,-24.902342,-18.737793"
"-0.106079,-0.469604,-0.858765,-20.019531,-23.254393,-17.089844"
"-0.100708,-0.440063,-0.866089,-19.287109,-21.301268,-19.470215"
"-0.084961,-0.503540,-0.917603,-25.024412,-18.981934,-25.451658"
"-0.069580,-0.553467,-0.949097,-23.071287,-20.141600,-24.230955"
"-0.085693,-0.557129,-0.964966,-15.014647,-28.503416,-18.005371"
"-0.087524,-0.533936,-0.904907,-16.967773,-32.043457,-16.967773"
""
"0.090210,-0.849976,-0.473755,-3.967285,8.911133,22.705076"
"0.119385,-0.831787,-0.499390,-6.835937,7.385253,25.451658"
"0.126099,-0.812012,-0.486816,-7.995605,5.676269,25.634764"
"0.130371,-0.848999,-0.448975,-12.939452,3.479004,25.024412"
"0.127075,-0.828125,-0.435059,-4.394531,5.126953,28.503416"
"0.115479,-0.752930,-0.429199,2.380371,6.774902,25.512693"
"0.114990,-0.752075,-0.407471,2.563476,6.958007,22.094725"
"0.148315,-0.806152,-0.432251,-6.652832,10.437011,16.418457"
"0.154907,-0.834717,-0.442017,-13.793944,11.413573,16.113281"
"0.141602,-0.838135,-0.409912,-20.751951,13.793944,19.653320"
"0.128052,-0.787598,-0.481445,-20.385740,16.906738,21.118162"
"0.127075,-0.763550,-0.520630,-8.361816,15.441894,20.507811"
"0.139771,-0.736938,-0.521851,2.685547,8.728027,17.272949"
"0.147339,-0.762451,-0.524048,0.122070,6.042480,14.953612"
"0.149414,-0.846680,-0.472900,-4.089355,-0.061035,12.817382"
"0.145020,-0.811523,-0.419678,-4.638672,0.061035,18.432617"
"0.138428,-0.776733,-0.399048,-0.122070,9.521484,22.094725"
"0.114868,-0.660400,-0.411743,4.577637,17.028809,22.033689"
"0.123657,-0.618286,-0.529053,11.535644,29.663084,14.465331"
"0.145874,-0.684570,-0.577393,13.549804,27.587889,3.723144"
"0.150269,-0.805298,-0.575806,22.094725,18.432617,6.530761"
"0.123413,-0.795898,-0.496826,20.202635,17.211914,6.774902"
"0.121704,-0.793457,-0.498291,24.169920,19.042969,9.887695"
"0.128540,-0.751831,-0.508179,38.635254,26.306150,17.578125"
"0.112793,-0.643555,-0.575684,47.180172,34.484863,17.883301"
"0.106079,-0.614258,-0.680542,49.133297,34.240723,13.671874"
"0.114380,-0.782471,-0.656860,52.795406,23.132322,4.089355"
"0.116211,-0.854248,-0.612427,49.804684,14.770507,9.582520"
"0.102905,-0.804199,-0.537476,41.259762,14.831542,16.113281"
"0.056519,-0.705078,-0.501221,21.911619,20.080564,20.385740"
"0.065674,-0.691528,-0.534058,12.023925,34.362793,19.165039"
"0.106201,-0.631714,-0.660889,20.446775,38.940430,20.019531"
"0.108398,-0.596558,-0.692749,25.451658,34.790039,17.700195"
"0.110474,-0.667114,-0.636108,27.954100,26.367186,11.840819"
"0.108643,-0.701416,-0.607422,16.967773,24.291990,10.681151"
"0.101929,-0.773315,-0.582153,9.887695,25.146482,11.108397"
"0.084351,-0.760254,-0.615967,6.530761,30.334471,18.676758"
"0.071289,-0.654297,-0.630371,25.695799,36.132812,29.602049"
"0.075928,-0.490723,-0.683716,32.104492,39.062500,27.893064"
"0.086548,-0.512939,-0.725586,38.024902,39.978027,14.648437"
"0.094360,-0.558594,-0.715576,40.954586,34.790039,4.028320"
"0.097412,-0.663818,-0.693359,37.231445,32.897949,2.502441"
"0.095581,-0.706177,-0.662842,25.817869,31.127928,6.164550"
"0.106934,-0.718506,-0.681519,16.662598,36.987305,13.305663"
"0.111328,-0.632080,-0.806763,18.310547,35.339355,19.958496"
"0.085083,-0.505127,-0.816772,23.986814,29.052732,19.409180"
"0.033203,-0.449951,-0.731934,33.874512,19.470215,12.084960"
"0.026001,-0.465576,-0.684448,34.057617,21.545408,-0.732422"
"0.065430,-0.629395,-0.737305,15.380858,33.508301,-7.873535"
"0.085937,-0.716553,-0.870483,12.145995,33.935547,-4.882812"
"0.082886,-0.623291,-0.862305,16.723633,23.986814,5.493164"
"0.060303,-0.576416,-0.814331,24.719236,18.493652,10.070800"
"0.023682,-0.494751,-0.732178,34.851074,24.841307,8.789063"
"0.005005,-0.438599,-0.766846,33.569336,29.785154,4.760742"
"0.001587,-0.489990,-0.850220,20.141600,33.813477,-8.300781"
"0.023560,-0.615845,-0.889160,9.460449,28.564451,-18.920898"
"0.031494,-0.637573,-0.885498,4.272461,24.291990,-15.686034"
"0.017090,-0.595703,-0.891724,4.943848,24.719236,-11.169433"
"-0.013916,-0.519653,-0.893555,16.113281,23.864744,-5.371093"
"-0.029541,-0.496460,-0.854980,23.986814,19.348145,-7.995605"
"-0.044312,-0.487549,-0.797974,14.587401,24.047850,-14.404296"
"-0.046387,-0.520630,-0.852173,6.347656,27.587889,-16.906738"
"-0.062134,-0.542969,-0.878784,-1.586914,27.526854,-19.958496"
"-0.067017,-0.566162,-0.865845,-6.469726,27.709959,-22.338865"
"-0.066772,-0.577759,-0.900879,-6.530761,30.517576,-20.812986"
"-0.060913,-0.548584,-0.989258,1.770019,32.165527,-17.883301"
"-0.070801,-0.560547,-1.013794,12.939452,20.935057,-18.737793"
"-0.099854,-0.570435,-0.912598,22.583006,7.446289,-18.371582"
"-0.113159,-0.556274,-0.803467,19.775391,9.521484,-18.371582"
"-0.110962,-0.514038,-0.883423,5.493164,21.484373,-19.165039"
"-0.123779,-0.473999,-0.932251,-26.428221,20.385740,-35.766602"
"-0.109131,-0.764526,-0.842773,-12.084960,17.517090,-39.062500"
"-0.107788,-0.562500,-0.855835,55.175777,25.146482,-5.615234"
"-0.131226,-0.440186,-0.884033,72.509766,26.672361,-4.089355"
"-0.182617,-0.416382,-0.945068,54.992672,11.230468,-18.310547"
"-0.182739,-0.438721,-0.792603,49.438473,3.356933,-23.986814"
"-0.150635,-0.565430,-0.801025,35.583496,20.080564,-30.517576"
"-0.147339,-0.584229,-0.885864,36.193848,38.940430,-19.958496"
"-0.160034,-0.458130,-0.969727,34.301758,37.658691,-15.502929"
"-0.193726,-0.382935,-0.967896,16.967773,22.949217,-20.080564"
"-0.210205,-0.383789,-0.938843,13.305663,6.713867,-29.785154"
"-0.223877,-0.424561,-0.884766,36.804199,7.202148,-31.921385"
"-0.203979,-0.434692,-0.890869,45.288082,12.268065,-30.944822"
"-0.194946,-0.418823,-0.959961,45.227047,17.883301,-30.639647"
"-0.194092,-0.447510,-0.977783,34.057617,10.803222,-32.714844"
"-0.194092,-0.549194,-0.999268,30.517576,0.366211,-24.047850"
"-0.227783,-0.430420,-0.913330,33.081055,-3.967285,-17.517090"
"-0.250488,-0.291870,-0.886719,20.202635,-4.516602,-18.005371"
"-0.251343,-0.271362,-0.894653,5.310058,-1.525879,-29.724119"
"-0.241333,-0.295898,-0.937134,1.831055,1.892090,-39.733887"
"-0.223511,-0.373291,-0.992676,1.403808,1.953125,-42.297359"
"-0.220459,-0.464478,-1.003540,-0.427246,-3.784179,-41.320797"
"-0.229858,-0.484375,-0.990112,-5.798339,-13.000487,-33.325195"
"-0.250244,-0.454468,-0.910645,-4.577637,-16.540527,-28.625486"
"-0.286499,-0.356812,-0.837036,0.854492,-15.686034,-22.583006"
"-0.281616,-0.305298,-0.852783,-2.990722,-6.286621,-25.695799"
"-0.252686,-0.325073,-0.910645,-10.559081,1.464844,-31.127928"
"-0.228882,-0.359253,-1.016479,-8.666992,0.122070,-32.043457"
"-0.228394,-0.437988,-1.018433,-5.065917,-12.512206,-33.081055"
"-0.240112,-0.495728,-0.937622,-1.525879,-25.146482,-27.709959"
"-0.241333,-0.480957,-0.911255,-4.516602,-26.550291,-17.333984"
"-0.251953,-0.364136,-0.907349,-10.803222,-25.512693,-14.831542"
"-0.263794,-0.288452,-0.899780,-27.038572,-26.245115,-19.836426"
"-0.262817,-0.339600,-0.895752,-53.466793,-28.747557,-36.376953"
"-0.220703,-0.476929,-0.902344,-45.715328,-25.146482,-40.588375"
"-0.198242,-0.519531,-0.960449,-32.104492,-15.563964,-31.860350"
"-0.175415,-0.626221,-1.013672,-27.343748,-15.930175,-26.184080"
"-0.213135,-0.484741,-0.961548,-3.967285,-22.277830,-6.713867"
"-0.255493,-0.315063,-0.892822,3.540039,-31.188963,-2.746582"
"-0.257324,-0.300293,-0.863281,-13.183593,-34.179687,-16.113281"
"-0.217529,-0.377197,-0.872314,-24.047850,-24.353025,-27.404783"
"-0.161011,-0.552002,-0.946655,-26.184080,-19.653320,-28.198240"
"-0.156006,-0.626709,-0.940186,-31.555174,-19.836426,-17.517090"
"-0.169922,-0.601807,-0.912354,-37.353516,-25.146482,-2.441406"
"-0.226318,-0.446899,-0.855835,-39.184570,-27.709959,1.220703"
"-0.220459,-0.437012,-0.849243,-44.860836,-26.245115,-2.502441"
"-0.176270,-0.518677,-0.901489,-56.213375,-22.521971,-7.873535"
"-0.157593,-0.570068,-0.912964,-64.208984,-24.719236,-6.225585"
"-0.134155,-0.645142,-0.884399,-67.810059,-26.855467,3.723144"
"-0.167114,-0.585205,-0.807617,-67.626953,-26.672361,9.033203"
"-0.188843,-0.512817,-0.754272,-75.500488,-21.118162,10.986327"
"-0.170654,-0.529907,-0.789429,-70.617676,-10.864257,1.892090"
"-0.132568,-0.613159,-0.899780,-55.114742,-15.808105,-4.211426"
"-0.111450,-0.684570,-0.855713,-45.471188,-29.113768,0.183105"
"-0.111450,-0.693726,-0.752808,-44.250484,-31.860350,3.356933"
"-0.133057,-0.683350,-0.681885,-36.621094,-30.517576,8.361816"
"-0.134766,-0.649414,-0.660767,-34.729004,-24.597166,10.192870"
"-0.108887,-0.671509,-0.701538,-41.870113,-19.287109,6.652832"
""
"0.119995,-0.694214,-0.474854,16.906738,4.455566,34.057617"
"0.100342,-0.614258,-0.453369,22.094725,10.253905,31.311033"
"0.102905,-0.538208,-0.464233,13.305663,17.028809,13.916015"
"0.115356,-0.666382,-0.532715,10.986327,18.066406,5.615234"
"0.165527,-0.830444,-0.564087,9.826660,15.197753,0.793457"
"0.155518,-0.826782,-0.552490,12.390136,13.732909,11.596679"
"0.122437,-0.745239,-0.535034,3.906250,18.798828,16.906738"
"0.117920,-0.698608,-0.602051,2.319336,21.057127,18.493652"
"0.099609,-0.584106,-0.599243,15.991210,18.127441,19.958496"
"0.102905,-0.560791,-0.582397,25.085447,15.197753,10.864257"
"0.123413,-0.668457,-0.559814,26.367186,16.113281,3.295898"
"0.128906,-0.733154,-0.554687,27.709959,17.639160,5.187988"
"0.106689,-0.696533,-0.605347,32.043457,21.301268,12.268065"
"0.094238,-0.664307,-0.636475,32.897949,24.597166,16.174316"
"0.054077,-0.542114,-0.662476,37.597656,24.230955,10.864257"
"0.050659,-0.579346,-0.651245,37.231445,23.620604,3.234863"
"0.087402,-0.751709,-0.663086,36.987305,26.977537,-5.615234"
"0.103394,-0.800049,-0.693848,38.574219,31.372068,2.563476"
"0.104980,-0.795776,-0.724731,38.391113,30.822752,9.399414"
"0.086426,-0.652954,-0.734863,35.339355,27.770994,20.812986"
"0.077759,-0.598389,-0.760376,25.268553,25.756834,20.141600"
"0.063965,-0.538818,-0.777954,24.658201,23.681639,18.005371"
"0.041992,-0.531860,-0.720947,26.794432,19.592285,11.474608"
"0.042480,-0.572510,-0.697144,20.935057,22.705076,3.173828"
"0.066040,-0.703613,-0.736572,16.540527,30.944822,2.807617"
"0.084473,-0.701172,-0.810425,16.296387,32.104492,6.835937"
"0.084595,-0.603271,-0.828491,16.418457,28.198240,13.122558"
"0.072266,-0.566650,-0.821167,20.141600,21.911619,10.803222"
"0.039795,-0.533325,-0.774536,21.850584,19.836426,7.873535"
"0.062866,-0.598633,-0.769287,17.395020,21.484373,1.770019"
"0.070068,-0.637573,-0.778198,15.930175,23.742674,1.647949"
"0.054199,-0.611938,-0.771973,20.263670,23.559568,5.676269"
"0.054932,-0.556030,-0.823608,16.357422,24.047850,4.516602"
"0.048706,-0.557373,-0.839722,7.934570,21.057127,-0.244141"
"0.039063,-0.550659,-0.816284,14.404296,18.615723,-2.563476"
"0.039917,-0.594971,-0.805176,14.892577,21.606443,-3.540039"
"0.030518,-0.659424,-0.819214,13.061522,21.728514,-2.868652"
"0.021240,-0.624634,-0.774536,8.850098,20.202635,0.671387"
"0.022095,-0.558472,-0.780151,9.338379,25.024412,0.854492"
"0.025757,-0.546509,-0.806152,13.183593,29.113768,-2.807617"
"0.022705,-0.524048,-0.876221,17.028809,28.991697,-3.601074"
"0.025391,-0.541138,-0.897949,20.324705,22.949217,-6.164550"
"0.016602,-0.575439,-0.886108,14.160155,13.244628,-8.789063"
"-0.008545,-0.637573,-0.794922,10.620116,10.437011,-7.141113"
"-0.014648,-0.632202,-0.750977,9.826660,13.732909,-4.882812"
"-0.022095,-0.557861,-0.780884,10.498046,21.240232,-2.441406"
"-0.047852,-0.495239,-0.761841,10.620116,22.766111,-5.676269"
"-0.040405,-0.499756,-0.751099,10.925292,26.367186,-11.108397"
"-0.034912,-0.531616,-0.804932,10.925292,28.869627,-13.122558"
"-0.057129,-0.571533,-0.819580,10.864257,26.672361,-15.502929"
"-0.066040,-0.576416,-0.824707,9.216309,24.108885,-13.916015"
"-0.083374,-0.561768,-0.859497,18.127441,21.667479,-11.352538"
"-0.097656,-0.530762,-0.822388,24.108885,20.141600,-10.009766"
"-0.116455,-0.489502,-0.796997,21.484373,21.240232,-9.399414"
"-0.116943,-0.475342,-0.812378,10.314940,23.986814,-13.549804"
"-0.105713,-0.516846,-0.881470,4.577637,24.291990,-16.906738"
"-0.104858,-0.564941,-0.931396,2.319336,19.226074,-18.554687"
"-0.108154,-0.553589,-0.928101,8.911133,11.901855,-14.465331"
"-0.146729,-0.451538,-0.927246,-4.455566,5.249023,-26.855467"
"-0.176392,-0.638062,-0.794678,10.314940,4.394531,-28.930662"
"-0.150757,-0.536499,-0.880005,44.311520,22.277830,-10.742187"
"-0.139404,-0.517578,-0.951416,42.724606,30.090330,-11.901855"
"-0.130005,-0.562256,-1.085571,32.653809,11.230468,-11.596679"
"-0.159302,-0.551392,-0.956421,31.921385,-2.746582,-10.375976"
"-0.175659,-0.521240,-0.833252,31.372068,-4.394531,-7.690429"
"-0.183350,-0.482544,-0.842773,30.151365,10.192870,-4.577637"
"-0.179199,-0.372559,-0.853760,19.348145,18.859863,-10.314940"
"-0.160767,-0.355469,-0.967896,10.620116,20.141600,-16.113281"
"-0.159424,-0.372070,-1.005127,10.070800,10.131835,-24.047850"
"-0.172363,-0.419800,-0.964722,31.677244,-1.037598,-24.963377"
"-0.177856,-0.447998,-0.878662,40.039062,-1.098633,-22.827147"
"-0.180908,-0.426147,-0.869507,39.306641,4.638672,-18.188477"
"-0.185913,-0.398071,-0.863281,33.386230,8.483887,-17.395020"
"-0.203735,-0.364136,-0.853760,27.160643,12.145995,-22.033689"
"-0.194946,-0.348633,-0.915527,24.475096,14.953612,-24.108885"
"-0.191772,-0.350464,-1.023071,19.409180,15.624999,-26.977537"
"-0.198242,-0.360718,-1.017334,21.789549,1.770019,-28.808592"
"-0.204102,-0.390015,-0.932129,25.512693,-4.516602,-28.076170"
"-0.224609,-0.334473,-0.838623,23.681639,-7.263183,-25.024412"
"-0.236816,-0.333130,-0.833008,0.549316,-2.624511,-30.700682"
"-0.236572,-0.341797,-0.835937,-5.310058,2.380371,-34.973145"
"-0.236816,-0.352173,-0.877197,-3.295898,5.554199,-36.621094"
"-0.215088,-0.397339,-0.967041,0.732422,10.864257,-37.292480"
"-0.213013,-0.419800,-1.004272,5.981445,5.859375,-33.386230"
"-0.216553,-0.480713,-0.992065,7.995605,-0.244141,-30.334471"
"-0.248047,-0.433105,-0.917114,11.596679,-8.666992,-20.690916"
"-0.259033,-0.378174,-0.901489,1.464844,-6.347656,-15.991210"
"-0.253784,-0.353760,-0.928833,1.220703,-3.601074,-17.150879"
"-0.234741,-0.314087,-0.976807,-7.263183,-7.141113,-24.169920"
"-0.209839,-0.406860,-1.009521,-13.916015,-9.887695,-27.587889"
"-0.218994,-0.403320,-0.998779,-33.020020,-17.944336,-28.625486"
"-0.233643,-0.434326,-0.973267,-61.035152,-28.930662,-35.400391"
"-0.242187,-0.509644,-0.851196,-46.447750,-26.611326,-20.568846"
"-0.247070,-0.368286,-0.871582,-44.006344,-19.409180,-16.601562"
"-0.227539,-0.435669,-0.906982,-44.494625,-8.300781,-23.742674"
"-0.212524,-0.485229,-0.951904,-28.564451,-1.708984,-20.935057"
"-0.185669,-0.513428,-1.069336,-14.770507,-15.441894,-12.451171"
"-0.199829,-0.435425,-1.023315,-6.958007,-29.907225,-9.887695"
"-0.238525,-0.375122,-0.825073,-4.516602,-48.034664,-12.756347"
"-0.246216,-0.405396,-0.771118,-14.831542,-37.536621,-20.263670"
"-0.234497,-0.436890,-0.783325,-25.268553,-20.446775,-23.437498"
"-0.193237,-0.514526,-0.896851,-31.738279,-14.648437,-24.597166"
"-0.171387,-0.569214,-0.991455,-43.029781,-12.878417,-18.737793"
"-0.179443,-0.564209,-0.990845,-45.166012,-22.705076,-9.155273"
"-0.202759,-0.519531,-0.922607,-41.137691,-31.188963,-3.051758"
"-0.226318,-0.419800,-0.831421,-39.123535,-33.020020,-3.051758"
"-0.207275,-0.457886,-0.804810,-45.654293,-31.066893,-12.329101"
"-0.183228,-0.518066,-0.829590,-55.480953,-25.268553,-17.761230"
"-0.136841,-0.622192,-0.875366,-56.335445,-23.925779,-11.352538"
"-0.138916,-0.654907,-0.783325,-54.504391,-21.179197,-4.760742"
"-0.188232,-0.562256,-0.797852,-53.955074,-7.202148,6.408691"
"-0.228271,-0.582153,-0.788086,-60.241695,-8.483887,1.342773"
"-0.222778,-0.613281,-0.729248,-61.767574,-14.343261,-3.234863"
"-0.194214,-0.681519,-0.711426,-58.593746,-10.498046,-2.014160"
"-0.157471,-0.714600,-0.760254,-53.649899,-10.681151,0.610352"
"-0.136230,-0.720825,-0.784302,-44.250484,-14.099120,6.835937"
"-0.131958,-0.707764,-0.786499,-34.729004,-16.784668,14.343261"
"-0.149170,-0.655518,-0.759766,-25.878904,-20.690916,15.991210"
"-0.143311,-0.664185,-0.708984,-24.108885,-21.972654,13.854980"
"-0.125610,-0.697510,-0.712158,-28.381346,-22.155760,10.559081"
"-0.120605,-0.685547,-0.703125,-25.207518,-23.864744,10.253905"
"-0.099854,-0.684448,-0.703735,-29.296873,-22.949217,9.338379"
"-0.078003,-0.727661,-0.730591,-44.738766,-20.812986,8.056641"
"-0.062500,-0.757446,-0.744507,-53.466793,-22.766111,10.559081"
"-0.066772,-0.742676,-0.741577,-44.738766,-27.282713,17.089844"
"-0.078247,-0.668457,-0.665283,-42.785641,-28.747557,17.333984"
"-0.074829,-0.685669,-0.585937,-50.292965,-29.541014,11.596679"
"-0.043945,-0.760498,-0.562988,-58.837887,-27.160643,6.713867"
""
"0.112793,-0.622070,-0.442383,7.873535,-0.793457,33.508301"
"0.093994,-0.643188,-0.381714,1.708984,2.746582,18.981934"
"0.123779,-0.701782,-0.399902,2.502441,15.502929,10.131835"
"0.149414,-0.759766,-0.480713,-2.624511,30.883787,7.324218"
"0.185059,-0.873535,-0.625977,-1.464844,30.334471,10.437011"
"0.177490,-0.864502,-0.605225,5.554199,17.517090,24.475096"
"0.124390,-0.699951,-0.497925,18.188477,7.019042,36.621094"
"0.099487,-0.626953,-0.450317,25.512693,7.385253,32.897949"
"0.078979,-0.566528,-0.389771,26.794432,10.986327,26.733397"
"0.100952,-0.580688,-0.449463,25.817869,24.780272,13.793944"
"0.117920,-0.618774,-0.535767,21.789549,33.569336,4.211426"
"0.154663,-0.769287,-0.692383,22.521971,26.489256,4.394531"
"0.158569,-0.834229,-0.691895,26.733397,20.263670,10.192870"
"0.111816,-0.687134,-0.604248,30.883787,12.268065,24.658201"
"0.088257,-0.604126,-0.552490,28.198240,12.329101,22.949217"
"0.070312,-0.536987,-0.519287,26.550291,15.197753,16.357422"
"0.091064,-0.562378,-0.542847,27.587889,22.338865,2.014160"
"0.104614,-0.636108,-0.586914,14.770507,30.456541,-9.033203"
"0.113037,-0.813232,-0.648560,18.066406,32.226562,-2.746582"
"0.119141,-0.819580,-0.651367,18.249512,39.306641,15.808105"
"0.095825,-0.657715,-0.707153,15.930175,41.564938,22.338865"
"0.078369,-0.510376,-0.701782,16.052246,35.522461,20.141600"
"0.067749,-0.503052,-0.685669,18.493652,28.991697,5.554199"
"0.060547,-0.566650,-0.673584,28.259275,31.005857,-3.723144"
"0.066528,-0.681763,-0.725342,30.456541,33.813477,-6.652832"
"0.076538,-0.781860,-0.788208,35.034180,36.987305,-2.685547"
"0.072266,-0.734131,-0.815918,32.287598,33.020020,10.986327"
"0.077515,-0.638062,-0.803223,22.155760,25.268553,12.939452"
"0.068359,-0.580566,-0.755981,19.470215,24.047850,12.512206"
"0.050049,-0.509766,-0.749756,18.127441,25.512693,9.338379"
"0.046631,-0.503906,-0.770996,17.272949,26.916502,0.366211"
"0.070190,-0.603882,-0.831909,13.732909,27.221678,-3.540039"
"0.088135,-0.698608,-0.829834,12.145995,22.888182,-2.868652"
"0.079712,-0.684326,-0.793091,24.780272,16.296387,6.835937"
"0.051636,-0.581909,-0.724976,27.648924,16.174316,10.559081"
"0.026489,-0.493042,-0.732544,20.446775,20.751951,9.216309"
"0.010864,-0.476685,-0.724976,19.409180,25.756834,-0.305176"
"0.021240,-0.546875,-0.743042,7.141113,35.949707,-9.582520"
"0.074585,-0.705933,-0.885620,1.770019,38.757324,-10.070800"
"0.064941,-0.677490,-0.924683,10.803222,29.235838,-0.183105"
"0.025024,-0.612671,-0.822632,18.859863,13.549804,6.652832"
"0.005859,-0.600586,-0.765747,19.714355,11.840819,6.835937"
"0.002319,-0.570068,-0.729370,18.737793,16.784668,6.408691"
"0.011719,-0.558960,-0.814941,13.305663,29.296873,3.845215"
"0.009888,-0.589478,-0.874268,12.817382,29.418943,-0.976562"
"0.014404,-0.614990,-0.891846,9.704590,23.132322,-2.929687"
"0.015137,-0.668579,-0.887817,8.605957,20.324705,-1.220703"
"-0.029297,-0.619141,-0.784424,10.986327,15.563964,5.310058"
"-0.045898,-0.542480,-0.688477,15.686034,21.545408,6.958007"
"-0.029053,-0.526611,-0.735107,9.887695,39.062500,2.624511"
"-0.012207,-0.544556,-0.875488,5.798339,39.367676,-3.479004"
"-0.021484,-0.580444,-0.923096,4.394531,33.874512,-5.981445"
"-0.031128,-0.656250,-0.873535,8.666992,24.230955,-5.920410"
"-0.041870,-0.639526,-0.845703,24.719236,22.277830,3.356933"
"-0.074097,-0.550049,-0.786377,32.531738,22.949217,5.859375"
"-0.074219,-0.494873,-0.794312,29.052732,28.869627,4.028320"
"-0.072021,-0.499146,-0.838501,25.939939,33.264160,-2.746582"
"-0.073120,-0.517334,-0.911621,29.296873,31.249998,-5.126953"
"-0.084717,-0.551392,-0.950562,23.010252,23.864744,-6.835937"
"-0.109741,-0.553467,-0.876099,24.475096,15.075683,-3.967285"
"-0.110474,-0.532837,-0.810181,27.954100,17.517090,0.854492"
"-0.122437,-0.470337,-0.754272,27.770994,24.597166,1.708984"
"-0.103882,-0.427612,-0.866699,21.850584,38.330078,-1.770019"
"-0.097534,-0.437866,-0.946167,20.812986,34.606934,-11.230468"
"-0.116333,-0.489502,-0.960205,28.686522,26.184080,-14.099120"
"-0.161621,-0.512207,-0.853516,47.241207,14.953612,-11.962890"
"-0.168579,-0.442627,-0.801392,52.551266,17.272949,-7.141113"
"-0.166870,-0.434326,-0.825073,25.573729,25.573729,-11.413573"
"-0.162231,-0.465698,-0.869019,16.418457,28.076170,-13.183593"
"-0.150146,-0.453003,-0.928223,11.718749,30.273436,-12.817382"
"-0.157837,-0.443848,-0.950439,13.122558,22.521971,-13.549804"
"-0.193604,-0.425659,-0.896362,24.597166,11.779784,-13.305663"
"-0.208740,-0.394287,-0.814331,29.907225,11.413573,-12.939452"
"-0.202515,-0.393188,-0.844727,20.629881,17.761230,-16.052246"
"-0.191528,-0.417480,-0.872314,9.033203,20.874022,-20.141600"
"-0.181030,-0.431152,-0.926270,8.605957,19.958496,-19.714355"
"-0.218994,-0.407715,-0.934814,15.319823,13.305663,-18.188477"
"-0.252197,-0.394165,-0.862915,21.911619,5.676269,-17.761230"
"-0.249756,-0.390869,-0.856812,19.775391,8.972168,-17.944336"
"-0.236938,-0.390381,-0.891235,16.723633,11.535644,-18.127441"
"-0.232422,-0.348755,-0.903076,9.277344,13.061522,-19.165039"
"-0.241211,-0.336060,-0.923340,-2.319336,11.718749,-24.597166"
"-0.266724,-0.364136,-0.931519,-2.502441,7.263183,-28.686522"
"-0.251221,-0.443848,-0.940308,-2.380371,6.835937,-28.259275"
"-0.241943,-0.448120,-0.955811,0.854492,5.126953,-21.423338"
"-0.241089,-0.325806,-0.910156,-2.441406,-0.427246,-16.357422"
"-0.254395,-0.327637,-0.885132,-17.028809,-3.417969,-28.076170"
"-0.276367,-0.399170,-0.786865,-4.150391,-1.708984,-26.306150"
"-0.275146,-0.304199,-0.901855,12.634276,9.521484,-20.996092"
"-0.255127,-0.360840,-0.973877,7.934570,10.131835,-27.404783"
"-0.237061,-0.381348,-1.030762,-2.197266,4.333496,-26.306150"
"-0.236206,-0.466919,-1.041138,-3.112793,-4.089355,-24.597166"
"-0.280518,-0.334717,-0.910645,12.207030,-15.808105,-14.038085"
"-0.314941,-0.280029,-0.852051,9.094238,-12.695312,-16.906738"
"-0.309448,-0.294800,-0.830933,-2.197266,-6.896972,-24.536131"
"-0.267334,-0.334229,-0.861206,-4.577637,-3.234863,-26.611326"
"-0.250732,-0.361328,-0.937256,-2.380371,-0.488281,-27.160643"
"-0.260132,-0.348511,-0.951050,10.192870,-5.493164,-24.597166"
"-0.287842,-0.321777,-0.912964,20.874022,-8.972168,-24.902342"
"-0.290161,-0.311646,-0.916260,24.902342,-8.239746,-25.512693"
"-0.290161,-0.314697,-0.937622,28.808592,-9.094238,-27.832029"
"-0.273926,-0.359253,-0.937744,24.230955,-12.695312,-28.625486"
"-0.273682,-0.354370,-0.929687,22.216795,-13.793944,-23.498533"
"-0.291870,-0.310425,-0.901733,15.075683,-13.122558,-22.216795"
"-0.306152,-0.295288,-0.888062,11.901855,-11.962890,-22.827147"
"-0.295776,-0.286133,-0.899292,6.835937,-7.385253,-23.864744"
"-0.290771,-0.284058,-0.917969,4.577637,-4.272461,-24.414061"
"-0.266846,-0.261597,-0.939209,5.920410,-4.455566,-24.353025"
"-0.255371,-0.302490,-1.001709,7.568359,-5.554199,-25.329588"
"-0.259521,-0.307129,-1.022217,11.108397,-15.136718,-22.460936"
"-0.281982,-0.267334,-0.963623,19.531250,-22.583006,-21.423338"
"-0.288208,-0.256592,-0.932373,17.456055,-21.972654,-22.644041"
"-0.266724,-0.197266,-0.926270,-28.320311,-19.348145,-33.508301"
"-0.262451,-0.380371,-0.925537,-55.969234,-12.756347,-44.860836"
"-0.262573,-0.371338,-1.032104,-30.456541,-18.798828,-23.437498"
"-0.251587,-0.324707,-0.998291,-31.127928,-26.000975,-26.000975"
"-0.249023,-0.436157,-0.905884,-24.353025,-26.123045,-24.597166"
"-0.252930,-0.281738,-0.956665,-5.065917,-10.925292,-11.108397"
"-0.252808,-0.230835,-1.069702,-28.564451,-15.930175,-17.639160"
"-0.240845,-0.288086,-1.001709,-27.526854,-29.968260,-23.315428"
"-0.238525,-0.338867,-0.907349,-14.770507,-34.484863,-24.291990"
"-0.230225,-0.333862,-0.932007,-14.770507,-24.475096,-22.827147"
"-0.220337,-0.370361,-1.007080,-23.498533,-27.587889,-22.644041"
"-0.226562,-0.340820,-0.968994,-23.681639,-32.165527,-21.484373"
"-0.221436,-0.321533,-0.956909,-26.245115,-32.958984,-22.399900"
"-0.221313,-0.317139,-0.957520,-29.479979,-30.639647,-26.306150"
"-0.218384,-0.359009,-0.962402,-37.963867,-28.381346,-30.273436"
"-0.204346,-0.470093,-1.008667,-43.762203,-27.587889,-29.846189"
""
"0.087402,-0.638916,-0.548096,26.611326,-6.286621,33.874512"
"0.090454,-0.603394,-0.547729,24.658201,-2.807617,30.029295"
"0.135254,-0.705566,-0.640259,2.807617,6.225585,21.423338"
"0.164062,-0.789429,-0.732300,-11.352538,7.873535,23.742674"
"0.162598,-0.761475,-0.722412,-12.084960,-2.197266,32.348633"
"0.146484,-0.697998,-0.639771,-9.582520,-8.605957,33.813477"
"0.128784,-0.659424,-0.547363,-3.967285,-8.850098,32.836914"
"0.124878,-0.609253,-0.524902,8.605957,-2.136230,28.747557"
"0.137695,-0.598511,-0.561646,-1.831055,9.094238,20.385740"
"0.161377,-0.664673,-0.656250,-10.437011,10.925292,15.563964"
"0.180054,-0.718628,-0.715454,-13.854980,10.009766,15.441894"
"0.165894,-0.759766,-0.696167,-5.004883,2.258301,20.812986"
"0.155884,-0.739014,-0.632935,13.244628,-2.685547,30.761717"
"0.137329,-0.641724,-0.573364,17.639160,0.549316,33.203125"
"0.113037,-0.558228,-0.575684,20.446775,7.812500,28.747557"
"0.110107,-0.551758,-0.557373,22.277830,15.808105,18.859863"
"0.161987,-0.624390,-0.670166,10.375976,28.686522,15.502929"
"0.194946,-0.723389,-0.836914,10.131835,26.489256,17.272949"
"0.179810,-0.723999,-0.829224,17.456055,7.324218,25.085447"
"0.113403,-0.606812,-0.652222,21.423338,-2.380371,26.672361"
"0.101929,-0.547852,-0.560791,18.859863,2.502441,23.010252"
"0.128296,-0.574463,-0.644897,12.878417,16.845703,14.648437"
"0.148560,-0.624268,-0.708130,2.380371,22.827147,10.131835"
"0.183350,-0.765991,-0.801147,0.183105,21.850584,12.145995"
"0.174561,-0.771973,-0.765503,3.173828,12.329101,25.207518"
"0.152954,-0.694214,-0.699097,11.596679,3.356933,37.292480"
"0.114380,-0.520020,-0.595093,13.427733,7.934570,33.203125"
"0.135742,-0.519531,-0.618408,13.305663,13.488769,27.465818"
"0.154053,-0.555908,-0.712280,13.122558,21.728514,20.446775"
"0.168213,-0.612671,-0.729492,4.882812,18.127441,12.939452"
"0.197510,-0.767212,-0.750244,3.051758,17.944336,14.099120"
"0.170410,-0.733887,-0.754150,10.742187,18.310547,27.770994"
"0.151978,-0.636475,-0.723877,16.906738,14.770507,37.414551"
"0.130371,-0.508179,-0.650146,15.075683,14.709472,34.729004"
"0.140503,-0.494019,-0.630615,13.793944,21.484373,23.986814"
"0.154541,-0.525391,-0.680298,9.643555,30.944822,13.183593"
"0.169922,-0.658081,-0.745850,8.483887,28.015135,10.498046"
"0.202515,-0.694214,-0.779541,9.704590,26.550291,14.953612"
"0.187012,-0.548462,-0.793213,10.437011,21.118162,25.634764"
"0.170410,-0.501099,-0.755493,17.700195,12.756347,25.085447"
"0.149292,-0.402222,-0.652222,15.380858,13.977050,16.296387"
"0.135498,-0.432495,-0.616577,11.108397,17.944336,9.033203"
"0.136230,-0.563843,-0.623779,3.967285,28.259275,-1.708984"
"0.140137,-0.639893,-0.655518,-8.239746,38.146973,-2.075195"
"0.124634,-0.652466,-0.718384,-0.244141,41.931149,8.605957"
"0.118042,-0.546387,-0.764282,4.211426,43.212887,11.962890"
"0.117676,-0.501465,-0.838623,2.868652,41.748043,10.864257"
"0.108276,-0.491699,-0.829590,9.033203,31.738279,6.286621"
"0.086914,-0.473145,-0.770752,9.643555,27.954100,3.601074"
"0.101074,-0.538208,-0.744873,9.460449,30.212400,-0.305176"
"0.104980,-0.521118,-0.820801,11.962890,40.161129,4.089355"
"0.091797,-0.467407,-0.944946,16.601562,30.029295,1.037598"
"0.076660,-0.524414,-0.874268,16.601562,23.437498,-2.075195"
"0.054443,-0.576660,-0.780396,10.192870,20.263670,-3.845215"
"0.050415,-0.591064,-0.775757,10.742187,29.785154,-0.793457"
"0.048584,-0.541992,-0.868164,21.850584,38.024902,3.662109"
"0.044189,-0.498535,-0.958130,25.329588,37.048340,3.173828"
"0.058960,-0.529175,-0.909058,25.939939,29.541014,1.159668"
"0.054321,-0.513916,-0.891479,21.057127,27.282713,2.319336"
"0.032959,-0.479614,-0.896729,15.930175,26.611326,1.037598"
"0.026855,-0.526978,-0.942871,9.582520,27.038572,-2.990722"
"0.016602,-0.514404,-0.952271,14.282226,25.939939,-2.136230"
"0.015503,-0.495361,-0.947510,11.352538,23.559568,-4.333496"
"0.008911,-0.499512,-0.926392,12.756347,22.216795,-4.516602"
"-0.009888,-0.490234,-0.900757,16.235352,21.362303,-5.310058"
"-0.008667,-0.510498,-0.930298,12.817382,23.498533,-8.178711"
"-0.009888,-0.547852,-0.951050,11.718749,21.789549,-7.995605"
"0.000488,-0.517456,-0.890625,11.291503,18.615723,-4.699707"
"-0.001953,-0.501099,-0.877930,5.859375,20.874022,-2.685547"
"-0.020508,-0.453369,-0.839355,14.648437,20.080564,-2.075195"
"-0.034058,-0.406250,-0.816162,12.817382,22.338865,-5.310058"
"-0.027832,-0.461304,-0.864624,0.671387,27.038572,-15.136718"
"-0.021973,-0.485962,-0.887207,-0.854492,26.855467,-19.409180"
"-0.010376,-0.533081,-0.922852,6.530761,25.207518,-16.601562"
"-0.031250,-0.550293,-0.927002,11.840819,22.583006,-13.916015"
"-0.084717,-0.517944,-0.812866,29.113768,14.282226,-8.483887"
"-0.081787,-0.474731,-0.776855,30.578611,19.592285,-5.798339"
"-0.071655,-0.432129,-0.861084,21.789549,25.512693,-7.995605"
"-0.091187,-0.417358,-0.896606,16.601562,26.977537,-14.343261"
"-0.096558,-0.420288,-0.908203,9.582520,24.108885,-20.751951"
"-0.099365,-0.524902,-0.948975,8.300781,18.554687,-20.507811"
"-0.124512,-0.504883,-0.916992,15.808105,15.441894,-15.991210"
"-0.121216,-0.456055,-0.898560,26.794432,12.207030,-11.474608"
"-0.110107,-0.450439,-0.905762,27.282713,12.329101,-12.023925"
"-0.127686,-0.401733,-0.921021,24.658201,12.451171,-13.610839"
"-0.157593,-0.371460,-0.926025,22.033689,11.901855,-16.052246"
"-0.175049,-0.393921,-0.926147,21.423338,10.375976,-20.080564"
"-0.176514,-0.405518,-0.925781,13.610839,10.253905,-21.545408"
"-0.152466,-0.442383,-0.954712,3.784179,11.657714,-20.874022"
"-0.135254,-0.459106,-0.980713,0.915527,10.742187,-18.798828"
"-0.144409,-0.399658,-0.995850,0.976562,5.493164,-14.099120"
"-0.159546,-0.334717,-0.959961,-1.098633,-2.868652,-16.662598"
"-0.201782,-0.362549,-0.872925,2.197266,-2.197266,-24.902342"
"-0.178711,-0.371216,-0.866577,12.084960,2.502441,-22.216795"
"-0.158691,-0.402100,-0.895752,21.545408,7.690429,-22.705076"
"-0.156860,-0.400146,-0.905884,23.681639,8.911133,-20.019531"
"-0.138916,-0.361816,-1.018066,14.709472,1.708984,-21.240232"
"-0.171265,-0.375854,-0.954468,16.296387,-4.577637,-21.545408"
"-0.191772,-0.312988,-0.868652,19.287109,-7.202148,-19.897461"
"-0.191528,-0.308838,-0.864990,12.145995,-0.610352,-24.169920"
"-0.185425,-0.351685,-0.900513,4.394531,3.601074,-27.893064"
"-0.172363,-0.385376,-0.934448,1.892090,4.699707,-26.733397"
"-0.173462,-0.315063,-1.000366,3.234863,5.493164,-21.179197"
"-0.196045,-0.272583,-0.999268,16.296387,-3.112793,-22.521971"
"-0.212524,-0.254395,-0.937866,15.808105,-7.690429,-29.113768"
"-0.210083,-0.284546,-0.916748,13.183593,-6.591796,-31.372068"
"-0.204956,-0.298340,-0.906128,15.930175,-2.929687,-33.691406"
"-0.204956,-0.289673,-0.915527,15.014647,1.831055,-34.790039"
"-0.192749,-0.336914,-0.942505,8.300781,2.319336,-35.339355"
"-0.193115,-0.397095,-0.990112,4.638672,1.403808,-33.691406"
"-0.217407,-0.365967,-1.004395,2.807617,-3.417969,-26.550291"
"-0.238647,-0.300049,-0.973877,10.681151,-8.361816,-22.460936"
"-0.250122,-0.248779,-0.947266,11.108397,-7.263183,-24.658201"
"-0.238647,-0.291016,-1.015503,10.131835,-4.882812,-28.564451"
"-0.225708,-0.283203,-1.023682,-2.624511,-10.009766,-29.785154"
"-0.220459,-0.314819,-0.996582,-29.113768,-16.418457,-35.644531"
"-0.224976,-0.350708,-0.958008,-37.780762,-18.310547,-34.790039"
"-0.218628,-0.335449,-0.938599,-67.382812,-19.714355,-36.437988"
"-0.211426,-0.448242,-0.914795,-70.251465,-17.150879,-36.621094"
"-0.214111,-0.397217,-0.886108,-39.855957,-11.535644,-23.986814"
"-0.217896,-0.366333,-0.832031,-33.569336,-5.126953,-25.207518"
"-0.225586,-0.366699,-0.993286,-28.137205,9.826660,-24.108885"
"-0.223511,-0.388184,-1.043213,-11.901855,-2.868652,-25.451658"
"-0.209229,-0.480225,-1.026245,-10.131835,-13.549804,-25.512693"
"-0.215454,-0.431519,-0.897949,-7.141113,-27.282713,-19.226074"
"-0.223267,-0.393433,-0.858276,-7.934570,-21.118162,-17.028809"
"-0.221436,-0.397339,-0.900635,-24.536131,-13.427733,-19.653320"
"-0.202148,-0.435059,-0.956055,-28.808592,-14.404296,-20.935057"
""
"0.036621,-0.708130,-0.521118,-14.465331,-6.225585,22.827147"
"0.053589,-0.767578,-0.515137,-10.192870,-3.234863,20.202635"
"0.057251,-0.778564,-0.504395,-9.155273,-1.770019,20.690916"
"0.065918,-0.781860,-0.494873,-16.967773,0.549316,20.263670"
"0.076050,-0.799194,-0.519287,-28.137205,4.455566,20.263670"
"0.080566,-0.811646,-0.606445,-24.230955,1.464844,24.230955"
"0.070190,-0.782104,-0.555786,-15.563964,-2.563476,26.245115"
"0.059448,-0.715942,-0.482910,-3.112793,-4.882812,27.221678"
"0.056396,-0.724487,-0.432861,-2.441406,-2.258301,20.935057"
"0.061890,-0.771606,-0.429443,-12.268065,4.882812,15.075683"
"0.100830,-0.871216,-0.497070,-23.132322,15.869140,20.019531"
"0.109741,-0.801758,-0.656494,-23.437498,17.028809,24.841307"
"0.113159,-0.745850,-0.661621,-14.465331,3.295898,26.855467"
