"aX,aY,aZ,gX,gY,gZ"
"-0.062866,-0.012817,-0.989624,14.587401,1.525879,5.554199"
"-0.042603,-0.034302,-0.991699,9.643555,5.310058,-0.549316"
"-0.033936,-0.078979,-0.997437,6.591796,5.187988,0.366211"
"-0.048340,-0.040405,-1.036865,1.037598,2.563476,4.638672"
"-0.047852,-0.084595,-0.978516,-1.831055,-4.821777,4.394531"
"-0.044189,-0.094238,-0.983643,7.385253,-1.342773,7.324218"
"-0.045044,-0.061401,-1.013916,4.394531,0.427246,10.192870"
"-0.041016,-0.068115,-0.987427,0.488281,-1.464844,8.239746"
"-0.041992,-0.096191,-0.975342,1.586914,0.854492,8.178711"
"-0.045898,-0.055298,-0.984863,2.136230,3.967285,12.451171"
"-0.034180,-0.023804,-0.965698,6.958007,3.662109,9.704590"
"-0.049438,-0.032104,-0.963989,7.934570,6.958007,11.718749"
"-0.036987,-0.063965,-1.000122,6.225585,7.263183,11.657714"
"-0.051880,-0.052856,-1.004150,-4.455566,2.685547,17.944336"
"-0.057251,-0.035522,-0.982788,0.549316,1.342773,21.484373"
"-0.054199,-0.030151,-0.997314,6.347656,3.417969,20.324705"
"-0.055542,-0.027588,-0.997803,3.051758,0.305176,18.798828"
"-0.056885,-0.055786,-0.940063,7.080078,0.671387,20.019531"
"-0.041260,-0.011841,-0.958252,19.775391,7.385253,25.817869"
"-0.052612,0.033691,-1.026733,13.244628,8.422852,27.404783"
"-0.057739,0.021240,-1.016724,5.493164,0.305176,24.169920"
"-0.056030,-0.004639,-0.926270,7.080078,-1.770019,24.719236"
"-0.073120,0.064941,-0.901123,13.366698,3.051758,29.235838"
"-0.080444,0.115845,-0.979370,10.681151,11.779784,25.024412"
"-0.084229,0.071411,-1.028809,4.943848,12.084960,15.319823"
"-0.072632,-0.012939,-1.052124,15.258788,6.164550,17.578125"
"-0.061279,-0.040649,-0.993530,25.817869,4.577637,28.320311"
"-0.096436,0.116455,-0.993164,18.859863,5.554199,33.386230"
"-0.105225,0.169434,-0.989258,9.338379,5.676269,26.977537"
"-0.096069,0.126465,-1.005249,15.747069,6.958007,18.737793"
"-0.089478,0.132690,-0.993530,15.502929,3.967285,17.150879"
"-0.085693,0.110229,-0.932373,16.113281,6.225585,14.892577"
"-0.076050,0.079834,-0.972412,19.531250,10.009766,14.709472"
"-0.099243,0.086548,-1.052002,15.502929,11.352538,16.174316"
"-0.104004,0.104248,-1.047974,5.004883,3.479004,16.113281"
"-0.105103,0.129272,-1.010376,7.934570,-0.305176,15.991210"
"-0.117432,0.182617,-0.952393,11.779784,3.112793,14.953612"
"-0.128418,0.242554,-1.000732,11.047362,6.896972,10.620116"
"-0.131226,0.229858,-1.029053,2.807617,6.652832,2.380371"
"-0.126587,0.227539,-1.024292,-2.990722,3.173828,0.549316"
"-0.115234,0.235107,-1.044067,-10.192870,0.061035,-2.624511"
"-0.112793,0.176147,-1.003906,-9.155273,-1.281738,-4.882812"
"-0.126831,0.187378,-1.031982,-6.591796,0.549316,-2.929687"
"-0.131592,0.306885,-0.985962,-5.493164,-2.136230,-1.159668"
"-0.115845,0.238281,-0.968140,-4.821777,0.305176,-14.038085"
"-0.109619,0.180298,-1.014282,-4.150391,2.929687,-18.005371"
"-0.109375,0.194946,-0.998047,-2.929687,-3.601074,-13.183593"
"-0.122437,0.228760,-0.966064,-2.868652,-2.075195,-14.343261"
"-0.134155,0.188599,-1.041016,-3.601074,1.770019,-19.287109"
"-0.138794,0.218994,-0.973755,-8.300781,-5.310058,-19.958496"
"-0.130859,0.244507,-0.930908,-13.183593,-3.356933,-27.587889"
"-0.093872,0.124146,-0.980469,3.906250,4.882812,-38.818359"
"-0.073975,0.003784,-1.035522,8.300781,3.662109,-36.071777"
"-0.107422,0.110596,-1.011963,-0.183105,-3.967285,-20.263670"
"-0.134399,0.220093,-0.948120,-5.615234,-9.643555,-17.578125"
"-0.132324,0.202637,-0.892578,-14.587401,-6.286621,-36.071777"
"-0.099243,0.002686,-0.931396,-10.620116,6.774902,-48.461910"
"-0.081543,-0.114624,-1.063599,-5.554199,7.812500,-43.151852"
"-0.082031,-0.002563,-1.059692,0.427246,-1.708984,-23.986814"
"-0.129272,0.158936,-0.947754,-13.244628,-14.709472,-14.648437"
"-0.140503,0.169922,-0.935303,-37.597656,-13.793944,-24.841307"
"-0.121094,0.066162,-0.970581,-41.442867,-11.291503,-31.555174"
"-0.094482,-0.023560,-0.978394,-36.621094,-8.239746,-37.536621"
"-0.086914,-0.084717,-1.042725,-25.024412,-6.103515,-34.545898"
"-0.096558,-0.061523,-1.040771,-19.104004,-11.047362,-26.489256"
"-0.082153,0.018799,-0.990112,-23.315428,-12.878417,-27.160643"
"-0.093872,0.026978,-0.975952,-31.005857,-13.854980,-28.930662"
"-0.083252,-0.013916,-0.943726,-31.249998,-12.512206,-32.653809"
"-0.052979,-0.135986,-0.990479,-24.841307,-5.310058,-37.780762"
"-0.040771,-0.142334,-0.994507,-14.892577,-6.347656,-29.418943"
"-0.041626,-0.122681,-0.945068,-0.915527,-8.544922,-22.460936"
"-0.028564,-0.101318,-0.927612,8.361816,-0.122070,-22.399900"
"-0.011841,-0.079468,-1.013794,-8.239746,-4.211426,-16.784668"
"-0.021118,-0.006836,-0.985352,-23.376463,-12.634276,-18.127441"
"-0.038696,-0.142456,-1.005005,-9.338379,-14.160155,-19.348145"
"-0.042114,-0.186890,-0.950073,-2.563476,-14.099120,-16.418457"
"-0.027222,-0.214233,-0.988647,8.605957,-1.464844,-13.366698"
"-0.025513,-0.141846,-1.039063,21.911619,3.417969,-2.868652"
"-0.022461,0.041138,-0.948486,13.061522,-4.150391,3.845215"
"-0.016357,-0.022217,-0.952271,7.995605,-0.915527,-14.343261"
"-0.000610,-0.220581,-1.024536,13.244628,0.244141,-16.174316"
"-0.016602,-0.151855,-1.031738,13.977050,-6.042480,-1.403808"
"-0.033569,-0.115723,-0.971191,17.700195,-8.972168,5.004883"
"-0.043457,-0.027710,-0.917603,24.047850,5.981445,4.211426"
"-0.027100,0.011353,-1.019531,22.766111,9.643555,-0.183105"
"-0.015625,-0.057251,-1.009155,11.657714,4.516602,-8.361816"
"-0.023804,-0.074829,-1.009521,-10.925292,1.098633,-5.126953"
"-0.037598,-0.082520,-1.037720,-9.460449,-2.441406,-0.549316"
"-0.044800,-0.058838,-0.999268,-4.882812,-3.051758,1.586914"
"-0.033447,-0.026611,-0.981689,0.488281,0.305176,2.685547"
"-0.030151,-0.033936,-1.000977,2.380371,4.089355,0.732422"
"-0.024658,-0.046997,-1.022217,-7.629394,2.868652,-0.610352"
"-0.008789,-0.094482,-0.987427,-11.596679,0.000000,0.000000"
"-0.031494,-0.063354,-1.002808,-13.122558,0.061035,5.737304"
"-0.046753,-0.049805,-1.004395,-15.136718,-1.037598,7.019042"
"-0.047607,-0.038452,-0.975098,-21.789549,-0.854492,6.103515"
"-0.047607,-0.031128,-0.988403,-24.841307,3.295898,2.380371"
"-0.038330,-0.083984,-0.990479,-22.705076,3.784179,-1.403808"
"-0.021118,-0.117920,-0.993286,-24.658201,3.967285,0.671387"
"-0.025513,-0.158569,-1.050171,-24.108885,3.417969,5.676269"
"-0.031860,-0.170898,-1.040405,-25.390623,-2.746582,12.817382"
"-0.036255,-0.145752,-0.946167,-18.371582,-1.281738,19.042969"
"-0.050415,-0.077271,-0.963013,-9.765625,6.347656,21.179197"
"-0.051392,-0.014893,-1.004639,-27.038572,2.807617,16.479492"
"-0.038696,-0.060303,-0.983643,-35.583496,0.976562,12.573241"
"-0.037476,-0.195435,-0.945801,-10.986327,1.464844,7.019042"
"-0.044556,-0.143188,-0.974121,7.690429,7.934570,15.930175"
"-0.044678,-0.124268,-1.007568,5.798339,8.972168,18.737793"
"-0.046875,-0.114380,-0.982910,4.699707,5.798339,19.897461"
"-0.051636,-0.074341,-0.940918,6.958007,4.821777,21.118162"
"-0.062378,-0.070557,-0.985962,4.272461,8.239746,18.554687"
"-0.064209,-0.068115,-0.987549,-8.178711,6.286621,18.249512"
"-0.066406,-0.060791,-0.978271,-11.840819,6.225585,17.211914"
"-0.063354,-0.125366,-1.008423,-5.249023,7.263183,14.282226"
"-0.055176,-0.219238,-1.042236,-0.488281,7.019042,13.916015"
"-0.058350,-0.161621,-0.984863,-14.099120,0.427246,26.123045"
"-0.068115,-0.108887,-0.943726,-8.178711,0.732422,32.165527"
"-0.082031,-0.061035,-0.970459,1.708984,8.483887,28.015135"
"-0.084351,-0.055298,-1.068848,-15.441894,1.525879,26.428221"
"-0.084106,-0.014282,-0.994873,-31.066893,-5.615234,26.977537"
"-0.062134,-0.072876,-0.895142,-38.513184,-8.728027,19.836426"
"-0.060913,-0.138184,-0.904175,-1.525879,5.432128,16.052246"
"-0.072998,-0.084229,-1.021606,-5.981445,9.399414,23.376463"
"-0.062744,-0.077393,-1.044922,-2.502441,5.249023,20.446775"
"-0.057739,-0.146973,-0.989502,22.521971,0.793457,16.723633"
"-0.048584,-0.132324,-0.989258,32.287598,3.173828,22.644041"
"-0.052856,-0.061646,-0.940796,19.531250,1.342773,27.832029"
"-0.068726,-0.007446,-0.930054,14.526366,8.850098,25.756834"
""
"-0.135376,-0.012939,-1.058716,-33.020020,11.840819,-50.598141"
"-0.097168,-0.212891,-1.048462,-28.991697,0.732422,-49.743649"
"-0.078369,-0.264160,-1.012451,-13.122558,-5.737304,-30.395506"
"-0.069336,-0.179077,-1.010132,-5.432128,-8.911133,-7.507324"
"-0.089355,0.030396,-0.937744,-4.760742,-10.375976,-3.723144"
"-0.090820,0.108765,-0.926636,4.516602,-5.004883,-11.657714"
"-0.107178,0.101318,-0.944702,-5.310058,-1.098633,-21.362303"
"-0.106689,0.036255,-0.979370,-11.474608,3.173828,-31.188963"
"-0.092041,-0.146118,-1.036011,-2.807617,-1.464844,-23.315428"
"-0.084351,-0.060791,-1.003296,-3.601074,-6.958007,-10.498046"
"-0.076172,-0.014526,-0.970581,-5.004883,-7.568359,-10.437011"
"-0.078491,0.062744,-0.949463,-4.150391,-5.554199,-7.751464"
"-0.095215,0.141479,-0.960571,-10.253905,-2.929687,-6.835937"
"-0.111450,0.187988,-0.965698,-14.770507,-2.075195,-20.080564"
"-0.101440,0.078247,-0.960693,-17.211914,-1.464844,-26.367186"
"-0.088257,-0.090210,-1.011230,-20.568846,-0.122070,-33.142090"
"-0.080444,-0.185059,-1.074951,-3.356933,-1.220703,-24.841307"
"-0.081909,-0.130737,-1.051758,11.169433,-8.605957,-6.103515"
"-0.080933,0.053955,-0.956787,-2.685547,-7.995605,-4.150391"
"-0.101074,0.105835,-0.995972,-24.963377,-4.821777,-13.549804"
"-0.102783,0.072754,-1.023315,-32.714844,-8.483887,-19.592285"
"-0.084839,-0.069702,-0.990356,-42.297359,-14.343261,-28.869627"
"-0.069458,-0.201538,-0.933472,-23.559568,-12.145995,-26.428221"
"-0.064941,-0.143188,-0.918701,4.943848,-1.708984,-11.596679"
"-0.055420,-0.022583,-1.008423,4.394531,1.159668,-14.831542"
"-0.048706,-0.073364,-1.002686,-4.150391,-3.479004,-16.479492"
"-0.042969,-0.054443,-0.964355,-17.822266,-8.117676,-14.770507"
"-0.056641,-0.135620,-1.048950,-28.442381,-5.981445,-18.920898"
"-0.047729,-0.197754,-1.057373,-31.677244,-11.596679,-16.296387"
"-0.043701,-0.233765,-0.973877,-8.056641,-11.779784,-4.089355"
"-0.065430,-0.032837,-0.944580,0.244141,-6.652832,-0.976562"
"-0.055176,-0.079346,-1.013428,2.441406,2.136230,-13.549804"
"-0.026611,-0.232544,-0.990356,4.699707,1.159668,-19.653320"
"-0.038696,-0.174438,-1.016846,1.403808,3.234863,-7.202148"
"-0.042969,-0.139526,-1.049072,-8.178711,0.366211,-2.441406"
"-0.038086,-0.130127,-0.994385,-6.408691,-4.699707,-2.746582"
"-0.035645,-0.134521,-0.954102,-3.173828,-1.892090,-2.929687"
"-0.040527,-0.140381,-0.995850,-1.281738,4.394531,-2.929687"
"-0.030273,-0.133667,-0.988647,-6.958007,2.929687,-1.708984"
"-0.025146,-0.170288,-0.984619,-6.042480,2.197266,-1.647949"
"-0.033936,-0.173950,-1.008301,-9.094238,0.610352,4.150391"
"-0.040161,-0.168091,-0.999512,-14.221190,-1.525879,4.516602"
"-0.052002,-0.154175,-1.009399,-27.221678,-3.173828,6.774902"
"-0.061279,-0.131104,-0.992065,-37.170410,-5.554199,7.812500"
"-0.052368,-0.100098,-0.907593,-36.682129,-4.272461,7.141113"
"-0.040894,-0.161377,-0.930908,-31.433104,8.605957,-1.953125"
"-0.042114,-0.304077,-1.026733,-15.014647,8.728027,8.056641"
"-0.049072,-0.206909,-1.015015,-5.187988,5.798339,16.296387"
"-0.060913,-0.139282,-0.966064,-7.812500,2.136230,20.935057"
"-0.069824,-0.134399,-0.936768,-12.634276,3.540039,19.653320"
"-0.078613,-0.103027,-0.920166,-12.817382,12.145995,17.517090"
"-0.060791,-0.123169,-0.993774,-9.460449,15.441894,14.404296"
"-0.066772,-0.181030,-1.011475,-8.850098,12.451171,14.038085"
"-0.068604,-0.150146,-0.957031,4.943848,8.300781,20.751951"
"-0.064697,-0.140625,-0.965088,18.859863,12.023925,20.935057"
"-0.076416,-0.158691,-1.004150,16.662598,9.277344,22.460936"
"-0.096191,-0.123291,-0.995239,18.676758,2.868652,29.907225"
"-0.102417,-0.016235,-0.966064,19.409180,0.915527,30.090330"
"-0.092896,-0.055908,-0.981812,14.831542,1.403808,18.981934"
"-0.088745,-0.138184,-1.032837,4.943848,2.502441,13.000487"
"-0.080688,-0.178101,-1.047974,16.235352,-0.915527,15.075683"
"-0.073242,-0.280029,-1.012817,39.123535,-6.164550,29.052732"
"-0.105103,-0.124756,-0.958496,40.344234,-6.835937,41.320797"
"-0.104492,0.085327,-0.941284,31.433104,-0.671387,46.264645"
"-0.098999,0.022339,-0.985474,15.869140,10.192870,24.291990"
"-0.073608,-0.080444,-1.005249,15.258788,9.582520,15.563964"
"-0.070190,-0.087402,-0.998657,16.906738,3.906250,25.329588"
"-0.079834,-0.046265,-0.985596,17.578125,2.380371,30.334471"
"-0.086304,-0.020630,-0.963623,19.775391,2.624511,30.639647"
"-0.084351,0.036133,-0.954224,22.521971,3.784179,31.311033"
"-0.084106,0.065796,-0.985107,13.671874,5.371093,25.878904"
"-0.081543,0.053955,-1.009399,-0.915527,2.685547,17.700195"
"-0.063232,0.000244,-1.016602,-15.380858,-4.333496,14.038085"
"-0.062500,-0.082886,-0.954468,-13.549804,-5.737304,14.709472"
"-0.072266,-0.106079,-0.960449,-0.244141,1.525879,21.789549"
"-0.104370,0.004761,-0.997925,-1.464844,4.455566,31.555174"
"-0.097656,0.137329,-0.983154,-13.244628,-0.366211,27.099607"
"-0.076050,-0.039673,-0.935913,-7.019042,0.915527,4.211426"
"-0.072632,-0.090210,-0.974976,-5.615234,8.789063,8.483887"
"-0.078247,0.004517,-1.041748,-23.010252,-0.610352,15.563964"
"-0.075806,-0.005493,-0.999756,-19.287109,-6.103515,9.216309"
"-0.089111,-0.108643,-0.942505,15.136718,-4.577637,4.516602"
"-0.095825,0.061035,-1.021606,13.671874,5.310058,22.216795"
"-0.099365,0.117432,-1.010254,0.854492,4.943848,15.258788"
"-0.097900,0.063843,-1.007935,4.577637,7.873535,1.098633"
"-0.090088,0.011963,-1.035034,1.220703,5.737304,2.929687"
"-0.077515,0.057373,-0.967407,-5.981445,-0.976562,8.056641"
"-0.087280,0.007080,-0.968262,21.728514,7.507324,4.028320"
"-0.101318,0.103271,-1.015015,37.109375,14.953612,10.803222"
"-0.105347,0.162720,-0.974731,49.743649,17.456055,8.239746"
"-0.136719,0.186523,-0.979004,56.701656,31.311033,1.831055"
"-0.145020,0.205444,-1.059692,58.654781,33.142090,0.122070"
"-0.143188,0.139160,-1.058960,57.617184,27.221678,-4.516602"
"-0.146118,0.114258,-1.039185,75.988770,23.132322,-3.112793"
"-0.174072,0.202881,-0.992065,83.862297,25.939939,4.394531"
"-0.177979,0.348511,-1.095337,71.777344,25.146482,1.342773"
"-0.181763,0.296875,-1.075806,39.550781,6.652832,-13.183593"
"-0.191162,0.302368,-1.019775,-0.854492,-6.958007,-17.517090"
"-0.194702,0.309692,-0.968750,-18.859863,-1.586914,-32.653809"
"-0.153320,0.134033,-0.955322,-15.563964,3.234863,-40.649410"
"-0.132202,0.087524,-0.960449,-10.925292,11.352538,-35.705566"
"-0.159302,0.190186,-1.037231,-20.568846,14.770507,-22.338865"
"-0.172974,0.234009,-0.956299,-32.653809,1.342773,-21.911619"
"-0.171143,0.199707,-0.927856,-29.541014,-6.530761,-28.747557"
"-0.154175,0.114746,-0.937988,-28.625486,-5.615234,-45.959469"
"-0.125122,-0.084106,-0.942627,-27.587889,0.122070,-43.212887"
"-0.105103,-0.102173,-1.005981,-18.310547,1.831055,-34.240723"
"-0.117676,0.005127,-1.008057,0.305176,-3.540039,-15.502929"
"-0.157104,0.200806,-0.906372,-18.737793,-13.305663,-6.713867"
"-0.136963,0.113403,-0.881348,-31.921385,-7.263183,-27.099607"
"-0.147461,-0.036377,-1.026367,-27.343748,5.371093,-38.085937"
"-0.143799,-0.093506,-1.057983,-7.995605,2.563476,-33.569336"
"-0.117798,-0.107910,-1.039307,-1.220703,-5.065917,-15.441894"
"-0.145752,0.065063,-0.984863,1.708984,-9.826660,-5.371093"
"-0.161743,0.235107,-0.903809,3.845215,-7.446289,-10.070800"
"-0.140259,0.143921,-0.970947,-9.399414,1.708984,-32.714844"
"-0.129883,0.016968,-1.008301,-23.986814,-0.305176,-45.532223"
"-0.110962,-0.173096,-1.029419,-23.742674,-4.943848,-35.278320"
"-0.074341,-0.276001,-1.047119,-16.662598,-6.530761,-27.282713"
"-0.089844,-0.161499,-0.984497,1.831055,-13.977050,-1.403808"
"-0.121094,0.057251,-0.899902,5.126953,-14.953612,15.502929"
"-0.134521,0.288452,-0.880859,1.647949,-2.319336,-14.648437"
"-0.115356,0.069092,-0.928467,-2.075195,4.455566,-33.996582"
"-0.107666,-0.113647,-1.057983,-8.239746,5.920410,-36.071777"
"-0.094849,-0.233765,-1.066650,-14.709472,-3.662109,-26.428221"
"-0.100098,-0.024048,-0.924438,-9.521484,-12.878417,-1.647949"
"-0.099731,0.142334,-0.928467,1.098633,-4.211426,-0.854492"
"-0.110474,0.137939,-0.962036,-8.972168,0.122070,-15.808105"
""
"-0.112549,0.047363,-0.958984,8.850098,6.042480,20.935057"
"-0.097900,-0.029541,-0.981445,6.713867,8.239746,13.854980"
"-0.088745,-0.085205,-1.015503,7.812500,7.629394,17.700195"
"-0.103149,-0.050415,-1.006836,12.695312,1.708984,30.822752"
"-0.123779,0.044434,-1.023315,12.451171,-0.183105,33.020020"
"-0.123413,0.015381,-1.025024,5.554199,-4.516602,24.353025"
"-0.121704,-0.022339,-1.022583,-7.995605,-8.117676,18.676758"
"-0.115479,0.023193,-0.965088,-19.348145,-12.145995,23.010252"
"-0.104858,0.015015,-0.945435,-0.061035,-6.347656,20.202635"
"-0.103149,-0.027832,-1.012207,7.568359,-2.197266,20.751951"
"-0.104248,-0.040527,-0.991699,6.225585,-5.249023,22.216795"
"-0.093872,-0.040771,-0.916748,10.498046,-5.432128,22.583006"
"-0.091919,-0.011963,-1.000122,8.544922,6.042480,23.986814"
"-0.091675,-0.010742,-1.027954,-2.746582,3.540039,23.254393"
"-0.089600,-0.035278,-0.993164,-3.356933,-3.417969,23.498533"
"-0.088135,-0.033936,-0.992676,0.854492,-5.798339,25.512693"
"-0.066895,-0.015137,-0.972290,0.000000,-7.263183,25.146482"
"-0.076904,-0.012817,-0.950928,-11.230468,-5.859375,23.986814"
"-0.081421,-0.054810,-0.986206,-4.272461,-0.793457,25.451658"
"-0.084229,-0.051270,-1.008423,5.859375,-0.244141,33.996582"
"-0.098267,0.058838,-1.003906,-2.685547,-2.258301,35.705566"
"-0.102783,0.100830,-0.914917,-4.333496,-1.647949,29.479979"
"-0.105469,0.064209,-0.944458,8.056641,9.643555,16.723633"
"-0.089355,0.070557,-1.023804,7.812500,15.502929,11.474608"
"-0.095581,0.023437,-0.971680,-12.939452,7.141113,10.314940"
"-0.100220,-0.006592,-0.978516,5.187988,8.361816,14.587401"
"-0.104248,-0.012817,-1.025269,14.892577,5.371093,22.460936"
"-0.112793,0.064453,-0.974243,17.883301,6.042480,20.385740"
"-0.123779,0.103516,-1.003418,26.428221,8.911133,19.287109"
"-0.109985,0.133301,-1.043579,29.602049,8.544922,13.488769"
"-0.100708,0.091919,-1.021362,8.728027,1.708984,2.624511"
"-0.102417,0.017822,-1.001465,-6.103515,0.549316,4.638672"
"-0.112549,0.026978,-0.990723,-0.915527,0.671387,7.873535"
"-0.125610,0.104492,-1.021484,4.577637,4.089355,11.535644"
"-0.130737,0.113647,-1.031006,0.183105,2.563476,6.103515"
"-0.122070,0.102661,-1.003174,1.708984,-0.488281,1.159668"
"-0.100952,0.096924,-0.971558,-2.929687,4.211426,0.244141"
"-0.119629,0.123535,-1.020142,-9.460449,6.469726,0.122070"
"-0.139648,0.152832,-1.053589,-14.892577,4.577637,-1.464844"
"-0.139404,0.165283,-1.001709,-12.451171,0.183105,-6.774902"
"-0.135376,0.150757,-0.983398,-6.530761,2.868652,-12.939452"
"-0.138672,0.149902,-0.991577,4.394531,7.690429,-15.258788"
"-0.151978,0.165649,-1.061646,8.056641,8.544922,-20.141600"
"-0.119751,0.109619,-1.060669,2.563476,-0.183105,-25.268553"
"-0.122925,0.042847,-0.951294,-4.333496,-2.014160,-22.338865"
"-0.166992,0.142212,-0.914185,-14.404296,9.094238,-11.291503"
"-0.173462,0.192505,-1.014893,-20.019531,25.817869,-15.502929"
"-0.177734,0.120239,-1.087402,-32.897949,20.812986,-27.221678"
"-0.179443,0.047607,-1.079102,-25.878904,6.591796,-35.522461"
"-0.151611,-0.065186,-0.987305,5.065917,3.417969,-32.775879"
"-0.131226,0.013306,-0.874146,5.249023,12.817382,-25.756834"
"-0.129028,0.135620,-0.887451,-4.577637,18.371582,-27.648924"
"-0.135620,0.019653,-0.958862,-36.621094,22.216795,-41.259762"
"-0.154297,-0.174561,-1.070068,-51.635738,10.559081,-37.353516"
"-0.154663,-0.209229,-1.056274,-38.513184,-13.122558,-20.324705"
"-0.164795,-0.215332,-0.951782,-14.892577,-11.108397,-12.329101"
"-0.183472,-0.091064,-0.955811,15.319823,-1.342773,-6.164550"
"-0.149170,0.104248,-0.938354,8.972168,0.244141,-18.188477"
"-0.172852,0.019775,-1.002075,-9.460449,-0.976562,-28.564451"
"-0.168457,-0.169922,-1.010986,-36.254883,-9.643555,-39.733887"
"-0.144409,-0.447388,-1.051392,-23.742674,-12.207030,-38.513184"
"-0.133423,-0.468018,-1.060913,12.878417,-16.601562,-8.972168"
"-0.141113,-0.129028,-0.916016,8.361816,-19.470215,10.925292"
"-0.155396,0.041992,-0.907593,1.281738,-12.756347,4.211426"
"-0.131592,-0.033813,-0.980957,-6.042480,-4.943848,-14.709472"
"-0.114868,-0.131470,-0.963013,-16.113281,-9.765625,-22.094725"
"-0.105713,-0.235474,-0.987793,-5.310058,-10.620116,-18.737793"
"-0.103760,-0.231079,-0.951294,19.714355,-11.718749,-2.929687"
"-0.091797,-0.103638,-0.928467,26.977537,-8.422852,-2.319336"
"-0.105835,-0.068237,-0.945312,30.822752,-3.479004,-4.577637"
"-0.109009,0.015625,-0.951416,15.808105,-1.403808,-6.835937"
"-0.143555,-0.059204,-1.067261,-3.723144,1.220703,-18.188477"
"-0.139282,-0.122192,-1.072144,5.981445,-5.920410,-24.230955"
"-0.106689,-0.159912,-0.943237,25.817869,-4.882812,-15.991210"
"-0.120483,-0.022217,-0.937012,29.479979,-1.281738,-12.207030"
"-0.113892,-0.014038,-0.965454,17.700195,2.014160,-16.113281"
"-0.082275,-0.200684,-1.012451,-7.995605,1.586914,-22.216795"
"-0.104126,-0.213745,-1.069946,-14.587401,-2.868652,-7.629394"
"-0.136719,-0.068481,-0.992676,-13.916015,-11.962890,4.882812"
"-0.124268,-0.037231,-0.932861,-5.371093,-8.117676,-0.793457"
"-0.116455,-0.035767,-0.955078,-1.770019,0.610352,-7.995605"
"-0.092285,-0.102783,-0.996460,-1.464844,1.831055,-11.047362"
"-0.096436,-0.133423,-1.044067,-2.807617,-1.892090,-5.554199"
"-0.093384,-0.140625,-0.986816,-2.868652,-5.737304,-4.028320"
"-0.099243,-0.104126,-0.951050,-3.906250,-4.943848,1.342773"
"-0.107910,-0.040649,-1.009521,-9.155273,-1.342773,2.502441"
"-0.101440,-0.070312,-0.935303,-5.615234,-4.333496,-3.906250"
"-0.100098,-0.085083,-0.944092,-5.371093,3.295898,-7.202148"
"-0.095581,-0.149902,-1.031006,-13.671874,2.319336,-8.117676"
"-0.084595,-0.258667,-1.017334,-13.061522,-1.281738,-0.976562"
"-0.093018,-0.249634,-1.039673,-11.596679,-2.136230,7.080078"
"-0.109131,-0.060181,-0.975830,-18.249512,-8.239746,19.714355"
"-0.099976,-0.050415,-0.922363,-20.996092,-5.859375,10.070800"
"-0.093140,-0.081909,-0.953857,-35.217285,0.183105,1.770019"
"-0.084717,-0.147461,-1.020264,-43.579098,-5.310058,-1.525879"
"-0.071289,-0.273804,-1.020386,-45.654293,-14.953612,1.647949"
"-0.058960,-0.332031,-0.958252,-45.959469,-18.188477,25.268553"
"-0.087646,-0.153076,-0.873779,-48.889156,-15.319823,36.315918"
"-0.097412,-0.063843,-0.893555,-29.968260,-0.488281,32.775879"
"-0.082520,-0.125000,-0.967529,-11.779784,10.070800,16.418457"
"-0.083496,-0.153564,-0.977783,-10.009766,8.850098,11.230468"
"-0.086060,-0.192505,-0.990601,-10.742187,5.432128,10.131835"
"-0.094116,-0.261475,-0.955322,2.319336,5.676269,12.756347"
"-0.088989,-0.255737,-0.950317,6.958007,9.216309,19.897461"
"-0.090698,-0.256348,-0.935303,15.563964,10.681151,22.705076"
"-0.090332,-0.161743,-1.004761,29.296873,14.343261,31.372068"
"-0.113892,-0.060181,-0.970703,11.657714,7.446289,31.677244"
"-0.122559,-0.069946,-0.930298,-1.586914,6.591796,19.226074"
"-0.117188,-0.163452,-0.967529,-4.150391,13.977050,13.366698"
"-0.105713,-0.245361,-1.056641,9.399414,8.666992,19.653320"
"-0.105713,-0.242554,-0.953369,21.911619,3.906250,26.428221"
"-0.123047,-0.071777,-0.920166,32.958984,7.080078,38.696289"
"-0.121826,0.000732,-0.949219,27.648924,12.817382,30.883787"
"-0.118286,-0.025269,-0.969482,16.235352,11.535644,16.296387"
"-0.112549,-0.114624,-0.976807,11.352538,12.207030,13.122558"
"-0.114014,-0.177612,-1.012695,14.160155,8.972168,18.737793"
"-0.118530,-0.185791,-0.958008,18.493652,6.347656,23.925779"
"-0.152344,-0.041504,-0.939209,27.465818,9.033203,34.606934"
"-0.152832,0.077393,-1.007324,27.160643,13.488769,29.113768"
"-0.145874,0.035278,-1.015747,18.615723,10.253905,11.718749"
"-0.126465,-0.075317,-1.001221,-3.051758,6.469726,12.939452"
"-0.144043,-0.038574,-1.023193,-13.916015,5.126953,17.395020"
"-0.151123,-0.036255,-1.002808,-2.746582,2.502441,19.042969"
"-0.156006,-0.011475,-0.976440,17.089844,5.187988,19.104004"
"-0.148560,0.017456,-1.031616,16.174316,7.507324,16.052246"
"-0.146118,0.013428,-1.039795,12.145995,1.831055,12.573241"
"-0.140015,0.027588,-0.987793,10.925292,-1.281738,12.451171"
"-0.142578,0.050659,-0.956055,5.554199,0.610352,10.864257"
""
"-0.123657,-0.226440,-1.027222,-1.464844,-11.596679,-8.422852"
"-0.125732,-0.055908,-0.951904,-9.216309,-17.089844,-3.540039"
"-0.110352,-0.060181,-0.884033,-9.094238,-14.465331,-9.460449"
"-0.110352,-0.139526,-0.974976,0.732422,-4.333496,-15.075683"
"-0.134155,-0.054932,-0.994385,-1.708984,-8.300781,-7.385253"
"-0.136597,-0.043945,-0.968994,-13.000487,-13.427733,-10.986327"
"-0.126099,-0.104004,-0.928833,-15.136718,-8.789063,-15.380858"
"-0.112915,-0.140991,-0.983276,-15.197753,-2.075195,-17.700195"
"-0.108398,-0.233765,-1.065552,-11.291503,-1.831055,-15.991210"
"-0.129395,-0.128174,-1.043945,-4.943848,-9.521484,-0.671387"
"-0.131714,0.013062,-0.966187,-8.728027,-16.174316,5.249023"
"-0.129272,0.024902,-0.924927,-8.911133,-15.014647,-3.845215"
"-0.126343,0.026733,-0.920410,-13.610839,-9.460449,-14.160155"
"-0.106934,-0.069092,-0.978394,-16.235352,-6.408691,-19.897461"
"-0.090576,-0.160400,-1.006592,-9.094238,-6.958007,-20.935057"
"-0.091553,-0.056396,-0.990479,-7.019042,-11.352538,-10.498046"
"-0.085449,-0.042603,-0.977539,-22.521971,-13.549804,-13.977050"
"-0.092041,-0.125854,-0.973999,-29.907225,-13.061522,-16.418457"
"-0.098389,-0.160522,-1.022339,-32.287598,-11.169433,-15.869140"
"-0.089722,-0.212646,-1.010132,-23.071287,-15.930175,-16.662598"
"-0.083618,-0.239746,-0.938965,-14.587401,-13.854980,-6.652832"
"-0.083618,-0.136719,-0.963013,-11.352538,-9.094238,-6.286621"
"-0.073730,-0.161743,-0.989868,-5.310058,-4.394531,-14.709472"
"-0.067871,-0.186768,-0.974365,-7.934570,-5.615234,-17.395020"
"-0.060791,-0.217407,-0.966431,-10.620116,-5.004883,-18.798828"
"-0.047485,-0.286987,-0.963623,-10.742187,-4.150391,-17.089844"
"-0.050781,-0.277466,-0.984863,-7.202148,-3.234863,-8.605957"
"-0.058472,-0.253784,-0.991699,-0.671387,-4.028320,-2.197266"
"-0.063965,-0.191528,-0.957031,1.892090,-3.356933,-2.136230"
"-0.060059,-0.178955,-0.969482,1.159668,-0.610352,-4.150391"
"-0.041138,-0.229614,-0.963257,-0.549316,-0.305176,-6.958007"
"-0.045532,-0.223999,-0.920044,-6.042480,0.610352,-2.929687"
"-0.056641,-0.190063,-1.029175,-9.033203,4.699707,-2.868652"
"-0.054443,-0.202026,-1.002563,-19.348145,-4.455566,-4.272461"
"-0.043701,-0.239746,-0.810425,-16.113281,-8.789063,-5.676269"
"-0.055664,-0.238403,-1.016479,-10.131835,13.244628,-5.432128"
"-0.061646,-0.229126,-1.094604,-21.911619,3.356933,-3.051758"
"-0.070190,-0.236572,-1.031128,-39.489746,-9.826660,-2.929687"
"-0.057373,-0.361572,-1.047485,-50.720211,-15.502929,-0.610352"
"-0.028564,-0.467529,-0.817749,-27.282713,-20.385740,6.958007"
"-0.066406,-0.130737,-0.770996,20.568846,4.394531,37.963867"
"-0.080933,-0.062500,-1.065308,23.132322,30.883787,23.681639"
"-0.072998,-0.193848,-1.004395,35.400391,14.648437,4.150391"
"-0.077637,-0.226807,-0.914917,29.235838,23.437498,11.535644"
"-0.092285,-0.200439,-1.102173,19.775391,23.559568,10.742187"
"-0.090576,-0.243042,-0.999756,2.685547,3.540039,11.169433"
"-0.084106,-0.167114,-0.892334,1.770019,0.610352,18.920898"
"-0.087036,-0.126953,-0.941528,9.033203,11.291503,16.113281"
"-0.083862,-0.166260,-0.966431,12.390136,12.878417,9.887695"
"-0.093994,-0.183594,-0.989014,13.793944,13.305663,10.437011"
"-0.110229,-0.187988,-1.020508,14.343261,7.751464,12.390136"
"-0.106445,-0.223022,-0.973877,12.634276,4.699707,14.404296"
"-0.110718,-0.181396,-1.014160,1.586914,2.990722,21.911619"
"-0.110229,-0.144043,-1.007690,-0.671387,-3.417969,23.315428"
"-0.096436,-0.183228,-0.951294,14.526366,-2.136230,18.432617"
"-0.101929,-0.255981,-1.020508,20.751951,0.976562,20.751951"
"-0.103638,-0.212280,-1.103882,23.071287,-3.112793,31.066893"
"-0.088379,-0.238525,-0.993774,14.465331,-22.399900,35.461426"
"-0.096191,-0.213013,-0.942993,6.347656,-29.235838,46.874996"
"-0.107300,-0.053711,-0.916016,7.812500,-21.118162,47.729488"
"-0.093506,-0.031616,-0.945068,8.850098,-14.953612,41.809078"
"-0.080566,-0.076294,-1.008667,5.065917,-7.202148,31.005857"
"-0.056641,-0.149292,-1.000122,3.967285,-11.718749,26.306150"
"-0.054565,-0.187012,-0.955322,14.526366,-15.441894,31.555174"
"-0.052246,-0.055420,-0.933228,20.935057,-11.596679,44.677731"
"-0.048828,-0.005981,-0.899780,18.371582,-3.784179,39.184570"
"-0.055420,0.019775,-0.908325,9.277344,11.230468,31.066893"
"-0.061890,0.051025,-1.007080,3.723144,15.441894,28.381346"
"-0.063965,0.015015,-1.052246,-13.488769,10.803222,18.676758"
"-0.038940,-0.146118,-0.980713,-6.958007,1.464844,6.347656"
"-0.053101,-0.119019,-0.967529,4.821777,7.385253,18.920898"
"-0.067139,0.026611,-0.983154,13.549804,12.329101,30.212400"
"-0.071899,0.033936,-0.947998,27.465818,14.648437,25.329588"
"-0.082275,0.081299,-0.970825,24.291990,18.859863,22.644041"
"-0.071899,0.045776,-1.048584,5.920410,20.507811,8.789063"
"-0.061890,-0.025879,-1.040161,4.150391,10.131835,-0.061035"
"-0.066284,-0.110474,-0.986694,8.178711,7.019042,12.084960"
"-0.081909,-0.005127,-0.975098,10.498046,8.361816,18.615723"
"-0.091187,0.096313,-1.002075,11.474608,11.291503,17.578125"
"-0.088867,0.091309,-1.021118,10.070800,11.535644,5.493164"
"-0.089233,0.011597,-1.039673,3.906250,8.178711,2.746582"
"-0.101196,0.001587,-1.028564,2.868652,5.554199,3.845215"
"-0.104980,-0.005615,-1.024414,10.803222,4.577637,4.455566"
"-0.103760,0.009155,-1.029175,16.845703,4.943848,7.690429"
"-0.107178,0.076416,-1.023193,16.296387,3.784179,8.728027"
"-0.113525,0.122070,-1.041504,18.554687,4.211426,7.385253"
"-0.118530,0.124146,-1.051758,13.671874,2.868652,4.638672"
"-0.109375,0.081787,-0.973633,20.324705,7.873535,6.469726"
"-0.113525,0.087891,-0.995972,25.207518,15.747069,8.300781"
"-0.143555,0.154541,-1.085938,16.296387,18.798828,6.347656"
"-0.148071,0.180176,-1.096069,1.586914,6.469726,-10.253905"
"-0.127686,0.096191,-1.032227,5.981445,-3.540039,-25.817869"
"-0.126465,0.077271,-0.940796,13.488769,2.868652,-19.104004"
"-0.140137,0.191162,-0.951660,5.798339,13.916015,-21.362303"
"-0.142822,0.163696,-1.001587,-2.197266,15.563964,-28.503416"
"-0.123901,-0.002930,-1.046021,-20.263670,9.826660,-39.550781"
"-0.112183,-0.066284,-1.027832,-21.972654,-0.671387,-40.161129"
"-0.112427,-0.121582,-0.945557,-3.540039,2.441406,-27.954100"
"-0.122070,0.003784,-0.982788,-1.342773,9.338379,-16.418457"
"-0.139160,0.127319,-0.996826,-9.216309,7.324218,-16.967773"
"-0.148315,0.145142,-0.966064,-27.038572,0.854492,-28.747557"
"-0.129028,-0.053223,-0.983154,-37.963867,-2.990722,-47.241207"
"-0.107300,-0.208618,-0.993286,-37.963867,-7.324218,-47.119137"
"-0.099976,-0.243896,-0.983398,-27.587889,-7.629394,-33.996582"
"-0.097900,-0.219604,-0.966797,-10.986327,-5.004883,-14.587401"
"-0.125488,-0.022461,-0.952393,-5.920410,-2.441406,-6.469726"
"-0.132568,0.046875,-0.998779,-9.216309,-2.136230,-13.061522"
"-0.101807,-0.117676,-1.017944,-20.935057,-12.634276,-28.808592"
"-0.090698,-0.200317,-0.979492,-28.625486,-23.132322,-26.611326"
"-0.086060,-0.262207,-0.961304,-27.709959,-19.470215,-13.488769"
"-0.116699,-0.201660,-0.987671,-25.817869,-18.920898,-6.347656"
"-0.115479,-0.014648,-0.922485,-13.977050,-18.859863,0.244141"
"-0.102051,0.001587,-0.960693,-6.042480,-9.521484,-14.892577"
"-0.070557,-0.201294,-0.948120,-12.939452,-9.399414,-31.738279"
"-0.066162,-0.231689,-0.945312,-19.958496,-9.460449,-23.559568"
"-0.064575,-0.201782,-0.990479,-23.010252,-7.446289,-13.427733"
"-0.063965,-0.192993,-0.984009,-15.014647,-13.305663,-8.972168"
"-0.071045,-0.126953,-0.925293,-9.887695,-11.596679,-8.361816"
"-0.076538,-0.105835,-0.961792,-4.455566,-4.516602,-14.343261"
"-0.074097,-0.149292,-0.980591,-11.840819,-4.333496,-20.935057"
"-0.072754,-0.268677,-1.058960,-18.615723,-4.638672,-24.291990"
"-0.071167,-0.296875,-1.060303,-12.390136,-12.756347,-14.831542"
"-0.071777,-0.220947,-0.937256,-5.187988,-13.671874,-3.051758"
"-0.077881,-0.076050,-0.960083,-9.399414,-5.004883,-8.056641"
"-0.066650,-0.140259,-0.990112,-3.417969,-7.507324,-21.240232"
"-0.038940,-0.250854,-0.970093,-1.586914,-6.042480,-22.216795"
"-0.025146,-0.288574,-1.007446,0.183105,-5.554199,-16.601562"
"-0.027466,-0.215332,-0.928711,-1.403808,-11.352538,-6.225585"
""
"-0.100830,-0.021851,-0.924683,20.263670,-0.122070,39.916992"
"-0.114258,0.031982,-0.985229,14.099120,5.493164,31.311033"
"-0.112793,0.023926,-0.982300,0.976562,4.638672,15.930175"
"-0.093994,-0.038940,-0.978882,-10.131835,4.333496,4.699707"
"-0.051147,-0.210815,-0.962036,6.042480,4.089355,13.244628"
"-0.093018,-0.144043,-0.973145,14.160155,5.371093,25.207518"
"-0.102783,0.045532,-0.989990,13.610839,5.615234,36.621094"
"-0.119751,0.048340,-0.973022,6.774902,3.723144,27.587889"
"-0.124878,0.046997,-0.983765,-0.122070,4.455566,20.935057"
"-0.119629,0.034668,-0.981079,-3.906250,3.234863,14.099120"
"-0.103760,-0.061157,-0.974976,3.906250,5.126953,11.962890"
"-0.106812,-0.062134,-1.047485,16.662598,8.789063,18.066406"
"-0.117188,0.047729,-0.974854,15.197753,1.037598,25.695799"
"-0.134277,0.107422,-0.974243,10.681151,4.882812,20.690916"
"-0.137817,0.088013,-1.027832,3.356933,7.629394,9.094238"
"-0.129883,0.076050,-1.031006,2.746582,3.295898,2.624511"
"-0.114990,0.009888,-0.988525,15.869140,3.967285,2.990722"
"-0.113037,0.030029,-1.042603,16.845703,5.126953,5.676269"
"-0.124023,0.081177,-0.988037,15.563964,0.244141,7.934570"
"-0.127930,0.102783,-0.993774,14.221190,3.173828,5.859375"
"-0.125977,0.121094,-1.022827,3.845215,3.479004,0.610352"
"-0.142212,0.104736,-1.019531,-3.601074,0.366211,-5.859375"
"-0.145508,0.065918,-1.042114,-1.281738,0.488281,-5.676269"
"-0.150024,0.102051,-1.046509,-2.929687,-2.136230,-5.859375"
"-0.147583,0.078857,-1.024170,-1.464844,-3.051758,-8.911133"
"-0.116699,0.004761,-1.000488,9.033203,-2.624511,-12.084960"
"-0.112427,0.012085,-1.009155,3.417969,-0.854492,-7.080078"
"-0.129395,0.133789,-1.011841,-9.765625,-4.760742,-10.925292"
"-0.138794,0.132324,-0.970825,-1.953125,-0.183105,-21.484373"
"-0.148926,0.106323,-1.009888,0.488281,2.258301,-22.644041"
"-0.140991,0.074951,-0.987793,-2.807617,0.915527,-26.245115"
"-0.132935,0.024170,-0.984253,-4.943848,1.464844,-31.066893"
"-0.108032,-0.013428,-0.991943,-3.662109,2.380371,-30.883787"
"-0.116333,-0.003418,-0.940186,-0.488281,3.356933,-29.907225"
"-0.112549,0.016846,-0.975464,-2.136230,10.437011,-28.564451"
"-0.141113,0.034546,-1.015259,-19.470215,7.324218,-29.113768"
"-0.126221,0.007813,-0.941406,-24.291990,-2.380371,-35.400391"
"-0.107300,-0.088501,-0.946655,-21.667479,0.122070,-44.799801"
"-0.081299,-0.282227,-0.972046,-0.122070,1.464844,-33.508301"
"-0.083862,-0.211182,-0.928101,18.432617,4.943848,-11.108397"
"-0.109253,-0.016968,-0.994385,17.944336,4.089355,-5.859375"
"-0.120361,0.008057,-0.952637,19.409180,-4.821777,-12.145995"
"-0.120117,-0.060791,-0.966309,15.808105,-1.953125,-22.888182"
"-0.128418,-0.135010,-1.018188,-1.831055,-1.953125,-24.047850"
"-0.120239,-0.166870,-1.027710,-10.375976,-5.554199,-19.714355"
"-0.095215,-0.204468,-0.990967,-1.525879,-7.690429,-8.056641"
"-0.094360,-0.077759,-0.942017,7.751464,-3.356933,-4.394531"
"-0.094727,-0.078857,-1.012939,9.582520,-0.610352,-7.507324"
"-0.117920,-0.063965,-1.021851,-3.723144,-5.798339,-6.958007"
"-0.120117,-0.068726,-0.996948,-9.338379,-9.277344,-7.507324"
"-0.120239,-0.059570,-0.978394,-10.559081,-9.094238,-7.812500"
"-0.110107,-0.051025,-0.987427,-13.122558,-8.056641,-10.192870"
"-0.095825,-0.155884,-0.975830,-14.831542,-7.934570,-15.136718"
"-0.103638,-0.107178,-1.009033,-11.718749,-5.432128,-7.934570"
"-0.099854,-0.082275,-1.010376,-7.873535,-6.103515,-6.103515"
"-0.088013,-0.141846,-1.005493,-1.892090,-6.591796,-7.202148"
"-0.091064,-0.133667,-0.995972,0.244141,-7.446289,-1.647949"
"-0.094360,-0.041016,-0.967651,-11.230468,-6.774902,-3.051758"
"-0.088501,-0.060059,-0.958130,-25.207518,-4.638672,-9.460449"
"-0.056763,-0.164917,-0.954224,-23.986814,-4.089355,-11.535644"
"-0.046265,-0.200684,-0.963013,-8.300781,-1.220703,-7.568359"
"-0.061157,-0.154541,-0.979858,-5.981445,-0.610352,-1.220703"
"-0.071533,-0.171021,-0.980103,-3.479004,-0.061035,-0.427246"
"-0.079468,-0.172974,-1.025269,-3.662109,-0.610352,2.929687"
"-0.075562,-0.151123,-0.979492,-11.657714,-3.234863,2.929687"
"-0.070190,-0.172974,-0.962402,-9.704590,1.159668,3.479004"
"-0.071411,-0.142822,-0.988647,-7.629394,1.647949,5.126953"
"-0.074463,-0.131592,-0.972900,-11.901855,-0.549316,5.126953"
"-0.078003,-0.164429,-0.969238,-8.605957,2.136230,3.356933"
"-0.084839,-0.154663,-0.983643,-6.408691,4.089355,7.202148"
"-0.086670,-0.120361,-1.001587,-9.765625,3.601074,6.835937"
"-0.076172,-0.184082,-1.006592,-12.268065,2.319336,4.821777"
"-0.077393,-0.178101,-0.988403,-15.075683,-0.549316,10.375976"
"-0.086426,-0.151245,-0.947754,-10.070800,3.234863,10.803222"
"-0.086670,-0.165283,-0.980225,0.183105,6.530761,11.291503"
"-0.092041,-0.093628,-0.960693,14.343261,6.652832,15.136718"
"-0.093262,-0.098022,-0.953125,6.164550,7.385253,10.192870"
"-0.091431,-0.153320,-0.990234,2.258301,6.591796,11.169433"
"-0.093384,-0.097534,-0.976318,-3.662109,1.525879,12.207030"
"-0.094238,-0.120483,-0.973755,-9.765625,2.807617,4.760742"
"-0.090942,-0.203125,-0.992920,-3.540039,3.540039,9.643555"
"-0.097656,-0.175903,-0.968140,2.502441,3.723144,15.197753"
"-0.098267,-0.126587,-0.951172,16.784668,5.004883,23.925779"
"-0.098877,-0.104004,-0.966431,22.705076,6.286621,25.817869"
"-0.107422,-0.066162,-1.019043,13.793944,2.380371,23.742674"
"-0.112305,-0.070435,-0.990967,6.347656,-0.854492,21.423338"
"-0.103027,-0.125366,-1.006714,-8.361816,-2.502441,18.127441"
"-0.100708,-0.138550,-1.016479,-2.868652,-4.333496,22.766111"
"-0.113403,-0.017578,-0.954468,6.103515,-7.202148,32.287598"
"-0.112549,0.026001,-0.918457,9.643555,-3.112793,27.160643"
"-0.101563,0.038086,-0.943481,1.831055,6.469726,14.587401"
"-0.101440,-0.034058,-1.034546,-7.385253,7.080078,9.033203"
"-0.098145,-0.110962,-1.011597,-17.456055,1.342773,4.577637"
"-0.091797,-0.123047,-0.954224,-6.835937,-0.061035,9.521484"
"-0.109009,-0.054932,-0.975098,-2.441406,4.333496,16.601562"
"-0.110474,0.007202,-0.974243,-1.403808,5.981445,15.258788"
"-0.095459,0.017822,-0.940063,-10.681151,7.629394,2.319336"
"-0.088135,-0.092285,-0.972778,-12.268065,8.056641,-1.525879"
"-0.090088,-0.154907,-0.969727,-7.080078,7.019042,0.244141"
"-0.092773,-0.219482,-1.028442,-7.263183,8.789063,7.324218"
"-0.131470,-0.120605,-0.978027,4.333496,5.187988,19.958496"
"-0.159668,0.096924,-0.989136,20.507811,10.437011,23.559568"
"-0.155151,0.097900,-1.005981,14.770507,13.977050,7.690429"
"-0.116333,-0.028076,-1.021484,11.901855,10.437011,0.122070"
"-0.117676,-0.071045,-1.009766,13.488769,7.751464,4.028320"
"-0.142700,0.004639,-1.014160,11.413573,4.577637,12.939452"
"-0.147705,0.048096,-1.013550,9.521484,3.906250,13.671874"
"-0.157349,0.150391,-1.040527,4.882812,2.563476,5.493164"
"-0.150635,0.100342,-1.018433,4.516602,0.061035,-1.098633"
"-0.132935,-0.013794,-0.995728,10.192870,1.220703,-7.995605"
"-0.135132,-0.013184,-1.057373,4.394531,3.356933,-4.028320"
"-0.141235,-0.015137,-1.024292,1.464844,-1.770019,-1.220703"
"-0.159546,0.062622,-1.021362,3.906250,0.793457,-1.098633"
"-0.158325,0.100586,-1.059570,1.342773,-0.976562,-5.676269"
"-0.142090,0.019165,-0.981689,-7.141113,-7.934570,-14.404296"
"-0.137817,-0.011597,-0.996216,-9.643555,-4.638672,-14.343261"
"-0.142822,-0.021362,-1.030884,-3.906250,-2.624511,-14.648437"
"-0.140259,-0.067871,-1.022949,13.305663,-5.859375,-11.535644"
"-0.131714,-0.033569,-0.952759,26.367186,-3.967285,-6.591796"
"-0.148682,0.155151,-1.010620,33.569336,4.699707,-0.183105"
"-0.144897,0.179077,-1.014771,10.986327,-0.793457,-17.883301"
"-0.128906,0.031494,-0.959229,-8.789063,-4.882812,-35.644531"
"-0.111694,-0.140259,-0.960449,0.488281,0.122070,-28.381346"
"-0.131348,-0.050781,-1.008179,4.211426,2.624511,-20.812986"
"-0.133179,-0.033447,-1.024536,8.789063,4.150391,-19.104004"
"-0.144165,0.021240,-0.974976,20.629881,1.037598,-18.371582"
"-0.152344,0.105103,-0.924805,7.080078,-1.281738,-22.583006"
"-0.147583,0.071411,-0.940918,-14.465331,2.807617,-38.330078"
""
"-0.063110,-0.280762,-1.045044,-18.310547,-2.624511,8.361816"
"-0.125366,0.017212,-0.897339,-19.897461,-9.460449,25.817869"
"-0.137207,0.009399,-0.915161,-6.408691,8.789063,6.774902"
"-0.130249,-0.021973,-1.012939,5.065917,21.850584,-7.019042"
"-0.112671,-0.106934,-1.080566,-5.065917,8.972168,-8.911133"
"-0.077271,-0.226196,-1.010986,-8.728027,3.906250,-5.981445"
"-0.098755,-0.219971,-1.028687,-9.277344,0.061035,11.535644"
"-0.125488,-0.057617,-0.975708,-0.183105,-5.126953,25.939939"
"-0.138306,0.012329,-0.892822,5.004883,-2.319336,21.179197"
"-0.161011,0.123535,-0.830933,7.263183,21.972654,2.136230"
"-0.119385,-0.014648,-1.094360,7.202148,28.015135,-9.704590"
"-0.073242,-0.187256,-1.016602,1.586914,10.559081,-13.122558"
"-0.074829,-0.246948,-0.969604,4.943848,3.784179,2.685547"
"-0.099243,-0.248901,-1.014282,17.456055,2.075195,23.620604"
"-0.123779,-0.042847,-0.926270,14.892577,1.159668,33.203125"
"-0.143311,0.084717,-0.899780,17.639160,10.253905,20.385740"
"-0.132935,-0.006226,-0.993286,11.840819,13.183593,7.934570"
"-0.110840,-0.108765,-1.018799,2.441406,4.089355,10.009766"
"-0.112183,-0.135620,-0.952515,5.554199,1.281738,14.404296"
"-0.138794,-0.060669,-0.979858,12.817382,3.662109,22.583006"
"-0.141968,-0.076660,-1.031494,3.479004,1.953125,22.033689"
"-0.151611,-0.063843,-1.004883,-10.192870,-6.530761,26.062010"
"-0.154297,0.036133,-0.904297,2.502441,-1.831055,24.475096"
"-0.139160,0.027100,-0.955200,5.920410,7.141113,18.066406"
"-0.134399,-0.015381,-1.021851,0.305176,5.249023,16.906738"
"-0.122070,-0.055786,-0.990234,-7.812500,-1.403808,18.066406"
"-0.132690,-0.024902,-0.992920,-14.465331,-3.662109,25.756834"
"-0.155029,0.057617,-0.980957,-29.541014,-6.286621,31.127928"
"-0.161011,0.072998,-0.998413,-36.376953,-5.310058,24.353025"
"-0.157471,0.081421,-1.018311,-39.978027,-10.070800,16.296387"
"-0.128052,-0.023193,-0.954224,-31.249998,-9.826660,14.282226"
"-0.153564,-0.006592,-1.028809,-13.488769,-2.746582,19.104004"
"-0.154419,0.050659,-1.027222,-18.310547,-5.493164,21.484373"
"-0.162109,0.047607,-1.011230,-26.611326,-6.835937,13.122558"
"-0.158447,0.038818,-0.967285,-13.000487,-1.159668,2.563476"
"-0.150513,0.060303,-0.984009,-8.300781,11.291503,-1.281738"
"-0.142578,0.045288,-1.068848,-11.047362,10.681151,-3.967285"
"-0.126587,-0.082031,-0.997559,-17.639160,-0.366211,-10.070800"
"-0.127686,-0.108398,-0.997681,-12.756347,-1.647949,-3.540039"
"-0.131470,-0.055664,-1.005249,-8.544922,-2.746582,1.159668"
"-0.143188,0.004272,-0.964233,0.854492,1.159668,-3.662109"
"-0.151001,0.007446,-0.977661,6.103515,4.150391,-7.812500"
"-0.140503,-0.052490,-1.052490,5.187988,8.422852,-14.709472"
"-0.136719,-0.088135,-1.058838,-1.159668,1.403808,-14.160155"
"-0.134155,-0.085937,-1.026978,-5.371093,-2.807617,-10.803222"
"-0.125122,-0.103638,-1.033813,-4.882812,-8.605957,-8.117676"
"-0.133301,-0.062134,-0.965210,2.075195,-9.216309,-4.028320"
"-0.147583,0.016113,-0.934082,8.850098,-0.732422,-8.361816"
"-0.125854,-0.026245,-1.004395,10.620116,1.892090,-12.695312"
"-0.124268,-0.005127,-1.013306,-7.751464,-3.051758,-15.014647"
"-0.128906,-0.007690,-1.003662,-23.315428,-9.033203,-20.141600"
"-0.117432,-0.101685,-0.972900,-16.296387,-9.094238,-21.789549"
"-0.115601,-0.129272,-0.930298,-11.352538,-6.774902,-18.859863"
"-0.121338,-0.077759,-0.984863,-4.333496,0.366211,-14.587401"
"-0.134155,-0.041626,-1.017822,-7.080078,-2.136230,-16.662598"
"-0.146973,-0.039307,-1.007446,-18.249512,-9.338379,-21.057127"
"-0.150513,-0.083984,-1.008911,-25.451658,-12.939452,-28.076170"
"-0.123779,-0.196655,-0.942871,-13.122558,-10.437011,-28.442381"
"-0.112305,-0.258057,-0.958496,13.549804,-1.403808,-18.371582"
"-0.098022,-0.195679,-0.948975,25.756834,0.427246,-12.390136"
"-0.087891,-0.043457,-0.974854,28.015135,2.929687,-4.211426"
"-0.122070,-0.008423,-1.061401,2.563476,-6.286621,-6.225585"
"-0.121216,-0.070557,-1.021729,0.488281,-23.803709,-14.404296"
"-0.109253,-0.216553,-0.882935,8.972168,-23.864744,-16.357422"
"-0.135254,-0.189697,-0.966797,24.353025,-7.751464,-10.803222"
"-0.101318,-0.115967,-1.044800,25.146482,-1.708984,-9.338379"
"-0.082153,-0.096436,-1.010376,0.854492,-12.878417,-10.803222"
"-0.078003,-0.095459,-0.909668,-15.686034,-14.099120,-16.845703"
"-0.074829,-0.205933,-0.971680,-9.338379,-10.009766,-17.822266"
"-0.085205,-0.276123,-1.029419,8.666992,-8.972168,-12.145995"
"-0.078857,-0.281982,-0.967529,42.053219,-9.765625,-2.380371"
"-0.087280,0.009766,-0.911621,48.278805,-7.080078,12.084960"
"-0.059692,-0.008423,-0.949585,36.254883,0.854492,-7.568359"
"-0.044800,-0.082153,-0.981323,8.483887,0.427246,-21.301268"
"-0.048950,-0.195068,-1.010010,-5.126953,-2.929687,-21.667479"
"-0.060425,-0.284180,-1.026001,-13.305663,-5.920410,-15.930175"
"-0.038086,-0.288086,-0.996216,-1.220703,-7.751464,-3.112793"
"-0.045532,-0.281616,-0.971680,27.221678,-5.310058,8.789063"
"-0.077881,-0.100830,-0.975342,33.630371,-1.037598,12.634276"
"-0.072754,0.001099,-0.973999,7.751464,0.671387,-2.075195"
"-0.057983,-0.098511,-0.995361,-9.399414,-0.427246,-8.544922"
"-0.030640,-0.178711,-0.972778,-32.775879,-4.150391,-10.314940"
"-0.028442,-0.267212,-0.994995,-24.230955,-1.770019,-5.249023"
"-0.040283,-0.274170,-0.985229,0.305176,0.244141,8.544922"
"-0.069824,-0.116089,-0.975952,12.207030,5.676269,14.221190"
"-0.073242,-0.042603,-1.013062,13.183593,6.164550,11.169433"
"-0.069702,-0.010376,-0.980591,0.549316,1.831055,4.760742"
"-0.055908,-0.056519,-0.968018,-14.648437,0.854492,-3.601074"
"-0.039185,-0.155884,-0.937134,-18.798828,1.037598,-3.234863"
"-0.047974,-0.189575,-0.976196,-9.277344,5.981445,1.831055"
"-0.059692,-0.139160,-1.022949,1.098633,6.591796,7.934570"
"-0.064209,-0.105713,-0.986328,-6.286621,0.976562,9.521484"
"-0.078735,-0.055176,-0.947388,-15.258788,5.310058,4.394531"
"-0.088867,-0.074829,-0.968872,-25.146482,8.789063,-3.723144"
"-0.072754,-0.146240,-0.976196,-25.695799,9.338379,-6.896972"
"-0.072754,-0.215576,-1.018921,-13.366698,8.728027,1.342773"
"-0.085205,-0.226685,-1.044067,-10.986327,4.882812,5.920410"
"-0.089966,-0.165894,-0.934937,-17.517090,-1.831055,14.709472"
"-0.098999,-0.115723,-0.939331,-12.573241,6.103515,15.747069"
"-0.107666,-0.066406,-0.968384,-6.713867,8.239746,8.605957"
"-0.089355,-0.065674,-0.950195,-8.972168,8.972168,4.394531"
"-0.083130,-0.191040,-1.018921,-10.681151,12.207030,-3.051758"
"-0.081543,-0.283081,-0.995239,-0.854492,6.347656,2.441406"
"-0.098267,-0.196899,-0.976440,5.371093,3.845215,18.432617"
"-0.106445,-0.152100,-0.991943,2.868652,3.845215,23.681639"
"-0.107666,-0.077759,-0.912964,13.305663,6.652832,16.845703"
"-0.122070,-0.033691,-0.909790,18.737793,13.183593,14.038085"
"-0.118286,-0.025879,-1.029053,19.531250,20.385740,6.652832"
"-0.100342,-0.198486,-1.019653,9.887695,11.108397,-1.892090"
"-0.097168,-0.262451,-1.000366,5.310058,4.699707,7.812500"
"-0.110840,-0.233398,-0.999390,7.934570,4.028320,17.089844"
"-0.125000,-0.053223,-0.945435,17.761230,2.929687,28.076170"
"-0.124023,-0.046997,-0.969971,19.897461,8.239746,20.690916"
"-0.126953,-0.068848,-1.014404,18.127441,7.812500,15.563964"
"-0.123169,-0.047485,-0.940674,14.892577,4.333496,14.892577"
"-0.132690,-0.051392,-0.983032,-1.037598,8.239746,12.207030"
"-0.146362,-0.031616,-1.065063,-5.065917,5.859375,12.023925"
"-0.114746,-0.125122,-0.931763,-4.760742,-6.835937,9.704590"
"-0.122437,-0.068115,-0.943970,0.366211,-0.854492,18.127441"
"-0.132446,-0.008301,-0.984253,3.906250,3.295898,17.272949"
"-0.129883,-0.035156,-0.994507,-3.540039,0.854492,12.634276"
"-0.135864,-0.047729,-0.963135,-2.929687,0.183105,12.939452"
"-0.146362,0.034546,-0.950317,2.502441,4.211426,11.840819"
"-0.136597,0.000000,-1.000977,0.793457,9.948730,1.953125"
"-0.127075,-0.039185,-1.020264,-7.690429,5.126953,-2.868652"
"-0.127441,-0.138306,-1.009766,-4.333496,1.464844,0.061035"
"-0.131836,-0.122681,-1.005737,2.136230,1.037598,4.638672"
"-0.150269,-0.007690,-1.015625,7.812500,1.647949,13.916015"
""
"-0.083130,-0.310913,-1.012329,-6.774902,-0.366211,-25.268553"
"-0.106445,-0.076294,-1.002441,9.399414,-8.850098,-1.647949"
"-0.111084,0.037598,-0.872070,18.676758,-7.690429,-4.394531"
"-0.135620,0.144165,-0.969971,15.747069,3.601074,-11.840819"
"-0.132202,0.073853,-1.005371,-15.136718,0.122070,-35.888672"
"-0.075928,-0.281494,-0.985840,-32.409668,-3.906250,-38.513184"
"-0.053955,-0.386963,-0.979736,-31.188963,-5.187988,-26.672361"
"-0.096313,-0.195679,-0.982178,-17.395020,-5.737304,-2.014160"
"-0.124756,0.011963,-0.978027,-5.126953,-5.004883,3.845215"
"-0.132324,0.063721,-0.979004,-3.540039,-4.943848,-8.239746"
"-0.129639,-0.003662,-0.937134,-15.014647,-3.967285,-27.282713"
"-0.096924,-0.306274,-1.013306,-16.662598,4.821777,-32.531738"
"-0.051758,-0.530029,-1.129517,-9.460449,1.831055,-21.179197"
"-0.069336,-0.208862,-0.971436,5.126953,-14.465331,17.761230"
"-0.096069,0.029907,-0.963623,2.197266,-14.343261,21.179197"
"-0.093018,-0.019165,-0.870239,-6.835937,-15.075683,0.854492"
"-0.091431,-0.078125,-0.858521,-9.277344,-2.746582,-13.977050"
"-0.080688,-0.249268,-0.996338,-9.948730,3.784179,-18.432617"
"-0.052124,-0.369995,-1.049194,-6.774902,2.014160,-13.427733"
"-0.057129,-0.251831,-0.983643,1.403808,-4.028320,5.798339"
"-0.064209,-0.149292,-0.992798,2.746582,-2.807617,11.901855"
"-0.086182,-0.092285,-0.919189,5.920410,-4.821777,9.765625"
"-0.094116,-0.074219,-0.968018,0.793457,3.173828,0.671387"
"-0.079956,-0.185791,-1.029297,-3.112793,5.737304,-11.474608"
"-0.058350,-0.304565,-1.007935,-2.502441,1.342773,-7.202148"
"-0.060181,-0.201416,-0.922852,1.403808,-1.159668,5.981445"
"-0.069336,-0.200928,-0.953857,10.070800,7.385253,6.774902"
"-0.079590,-0.151001,-0.960327,17.822266,11.352538,9.765625"
"-0.093384,-0.099731,-1.004395,17.272949,14.221190,1.098633"
"-0.075439,-0.223999,-1.060791,12.390136,5.798339,1.892090"
"-0.073486,-0.236206,-0.960571,14.831542,2.075195,7.873535"
"-0.119141,-0.058960,-0.901367,22.338865,6.042480,17.456055"
"-0.133423,0.022339,-0.976929,19.836426,19.531250,6.958007"
"-0.101074,-0.141968,-1.073853,17.761230,21.362303,-7.385253"
"-0.098633,-0.155151,-1.039063,21.667479,8.850098,0.183105"
"-0.106079,-0.149414,-0.990601,34.729004,9.155273,5.798339"
"-0.120239,-0.116699,-1.006104,38.635254,8.422852,9.704590"
"-0.136963,0.001587,-0.942749,35.339355,6.103515,16.723633"
"-0.142456,0.038452,-0.938354,16.357422,10.498046,11.840819"
"-0.131348,-0.039551,-1.024048,17.822266,10.925292,4.211426"
"-0.129028,-0.034668,-0.992310,14.892577,6.896972,7.629394"
"-0.138672,-0.084473,-1.051270,-3.662109,4.150391,7.385253"
"-0.119873,-0.190063,-1.021851,-10.803222,-2.014160,8.666992"
"-0.124634,-0.091431,-0.920776,-3.845215,-3.967285,23.315428"
"-0.151855,0.048584,-1.054810,4.150391,5.310058,25.024412"
"-0.144531,0.048462,-1.042480,-3.967285,-4.760742,12.878417"
"-0.129639,-0.062744,-0.936890,-10.742187,-7.446289,9.338379"
"-0.135254,-0.043091,-0.991455,-20.263670,-2.136230,12.512206"
"-0.128906,-0.028076,-0.989746,-40.954586,-5.798339,11.169433"
"-0.112915,-0.070435,-0.976318,-44.433590,-7.385253,6.469726"
"-0.100952,-0.123901,-0.920410,-34.790039,-2.746582,10.986327"
"-0.119141,-0.061523,-0.969727,-19.897461,2.990722,15.991210"
"-0.122314,-0.028809,-0.966309,-12.512206,1.281738,11.047362"
"-0.134766,-0.056274,-0.958862,-10.925292,4.516602,8.972168"
"-0.128906,-0.037598,-0.972168,-15.991210,5.249023,8.483887"
"-0.113159,-0.099365,-0.967896,-25.878904,4.333496,7.690429"
"-0.125610,-0.133545,-0.918701,-1.770019,4.821777,13.671874"
"-0.134033,-0.109741,-0.979248,12.878417,11.779784,17.944336"
"-0.135742,-0.070190,-1.018066,13.793944,3.479004,19.104004"
"-0.131714,-0.018677,-0.945557,13.305663,2.746582,18.005371"
"-0.136108,-0.049683,-0.984375,13.671874,7.263183,13.793944"
"-0.145630,0.019897,-0.982178,10.253905,7.873535,15.563964"
"-0.147339,-0.000122,-0.977905,18.188477,8.728027,11.718749"
"-0.155273,0.004639,-1.025391,20.568846,6.530761,10.375976"
"-0.152832,-0.027710,-0.989258,19.592285,6.225585,10.803222"
"-0.163086,0.014648,-1.035400,19.348145,6.652832,12.878417"
"-0.174683,0.070923,-1.007080,16.113281,2.441406,12.207030"
"-0.177612,0.086060,-1.012451,8.972168,2.258301,6.164550"
"-0.161499,0.056030,-0.993042,7.629394,2.197266,0.488281"
"-0.158691,0.026733,-1.010498,3.662109,2.929687,-0.610352"
"-0.154541,-0.012451,-1.017700,1.892090,1.220703,-1.586914"
"-0.152954,0.001709,-1.003296,2.197266,-0.732422,0.671387"
"-0.168701,0.062134,-0.979614,4.089355,-1.708984,2.624511"
"-0.174316,0.061035,-1.012085,11.230468,1.464844,-3.051758"
"-0.157715,0.033447,-1.009155,12.512206,1.037598,-9.216309"
"-0.138306,-0.003296,-1.009399,-4.333496,-0.976562,-5.920410"
"-0.155151,0.033447,-1.023926,-12.756347,-8.056641,-7.141113"
"-0.133911,-0.034302,-0.935303,-9.887695,-8.544922,-9.338379"
"-0.128540,-0.084106,-0.968262,-0.305176,-2.563476,-8.300781"
"-0.141235,-0.009033,-0.955933,7.202148,-1.708984,-2.075195"
"-0.153687,0.040649,-0.991943,2.929687,1.770019,-3.417969"
"-0.153442,0.032104,-0.993286,-11.352538,0.366211,-9.826660"
"-0.150757,-0.001465,-1.002441,-9.399414,-0.061035,-13.000487"
"-0.151367,-0.013672,-0.969604,-10.253905,1.220703,-13.916015"
"-0.153076,-0.024536,-1.020386,-11.474608,1.708984,-13.916015"
"-0.147461,-0.047607,-0.966797,-9.338379,-3.051758,-13.610839"
"-0.159180,-0.029541,-1.007568,4.516602,0.549316,-9.216309"
"-0.152710,0.027344,-0.977539,9.704590,-1.220703,-9.460449"
"-0.146606,0.007935,-0.944702,2.136230,-1.220703,-16.662598"
"-0.148560,-0.033447,-1.020996,-10.681151,-1.892090,-17.211914"
"-0.147705,-0.029663,-1.008301,-19.714355,-7.202148,-16.479492"
"-0.131470,-0.065918,-0.987427,-30.578611,-10.559081,-16.235352"
"-0.125000,-0.080444,-0.922363,-20.996092,-10.681151,-13.549804"
"-0.139038,0.023560,-0.895874,-0.061035,-1.525879,-10.986327"
"-0.126953,-0.044678,-1.017212,8.239746,6.958007,-21.667479"
"-0.121948,-0.088989,-0.996948,-3.295898,-2.075195,-21.423338"
"-0.131958,-0.136230,-1.009521,-16.540527,-4.516602,-15.869140"
"-0.141724,-0.133667,-1.011963,-16.845703,-7.202148,-11.901855"
"-0.143433,-0.034546,-0.943481,-15.197753,-10.253905,-7.446289"
"-0.124634,-0.053711,-0.938721,-7.568359,-5.126953,-14.831542"
"-0.124878,-0.075439,-0.981567,1.403808,-0.427246,-17.822266"
"-0.110352,-0.197510,-1.021118,0.915527,-2.563476,-21.972654"
"-0.117065,-0.231445,-0.987061,-10.742187,-9.338379,-14.282226"
"-0.123779,-0.176758,-0.979126,-8.605957,-9.277344,-4.211426"
"-0.121094,-0.058472,-0.960937,-6.042480,-7.934570,-5.737304"
"-0.105347,-0.072144,-0.936890,-7.202148,-6.713867,-10.986327"
"-0.112671,-0.179321,-0.980469,-2.746582,-1.586914,-18.066406"
"-0.112549,-0.210937,-1.007446,2.868652,-0.793457,-15.808105"
"-0.110474,-0.230591,-1.015381,-0.488281,-2.868652,-11.901855"
"-0.104614,-0.273926,-1.003296,10.986327,-4.821777,-3.723144"
"-0.103516,-0.165039,-0.965454,15.624999,-1.892090,4.577637"
"-0.109985,-0.077515,-0.964478,-1.037598,-2.807617,-4.272461"
"-0.104004,-0.172119,-0.961914,-1.525879,2.136230,-6.652832"
"-0.104614,-0.190186,-1.015381,-0.061035,1.281738,-4.577637"
"-0.115967,-0.181763,-1.002808,-4.211426,-2.746582,-0.549316"
"-0.104492,-0.171631,-1.009766,-2.319336,-2.502441,0.427246"
"-0.098511,-0.175293,-0.973511,3.784179,-3.479004,2.502441"
"-0.091187,-0.133423,-0.939087,0.732422,2.258301,3.784179"
"-0.087036,-0.137085,-0.982910,-2.807617,4.333496,2.624511"
"-0.091919,-0.160034,-0.973022,-9.948730,-0.793457,3.234863"
"-0.097778,-0.169067,-0.922974,-6.713867,-1.037598,5.187988"
"-0.101318,-0.168335,-0.994507,1.892090,6.347656,6.408691"
"-0.108765,-0.149536,-1.007690,0.061035,3.417969,9.399414"
"-0.115234,-0.152344,-0.993774,2.136230,2.014160,9.033203"
"-0.125122,-0.143555,-0.996704,2.380371,2.685547,10.375976"
"-0.125000,-0.094604,-0.989624,-0.183105,2.929687,10.314940"
"-0.129761,-0.091187,-0.993408,-7.873535,3.967285,5.493164"
"-0.124146,-0.091675,-1.010010,-12.634276,2.868652,2.258301"
""
"-0.182251,0.061035,-1.014648,24.475096,6.164550,8.789063"
"-0.192505,0.141235,-1.030518,15.380858,3.784179,8.972168"
"-0.194702,0.146240,-1.042114,2.990722,-0.244141,1.586914"
"-0.196167,0.086304,-1.008423,0.244141,-2.563476,-2.563476"
"-0.201538,0.096191,-0.995972,1.831055,-1.403808,-3.051758"
"-0.197021,0.057373,-1.008789,4.882812,2.868652,-7.995605"
"-0.157471,-0.022217,-1.023071,20.874022,5.676269,-10.742187"
"-0.160400,-0.013550,-1.041870,15.808105,1.403808,-5.065917"
"-0.164185,-0.004272,-1.000732,6.530761,-5.798339,-3.417969"
"-0.177368,0.016357,-0.970703,6.652832,-4.943848,-1.525879"
"-0.208374,0.125732,-1.005859,4.211426,-2.441406,1.586914"
"-0.188354,0.134033,-0.974121,0.183105,-5.249023,-8.483887"
"-0.162720,0.078003,-0.963623,4.577637,-3.112793,-21.972654"
"-0.136475,-0.055420,-1.001465,-2.258301,-3.479004,-19.592285"
"-0.146484,-0.026611,-0.974365,-12.512206,-4.699707,-12.390136"
"-0.177979,0.061646,-0.986938,-15.563964,-3.234863,-11.169433"
"-0.191406,0.135742,-0.985840,-19.226074,-5.126953,-14.099120"
"-0.174805,0.031494,-0.941162,-24.780272,-7.263183,-28.442381"
"-0.140747,-0.129639,-0.935303,-20.019531,-3.967285,-34.790039"
"-0.132935,-0.163818,-0.988403,-7.385253,2.746582,-25.207518"
"-0.151611,-0.049805,-1.020874,1.159668,1.586914,-10.864257"
"-0.151611,0.044434,-0.947754,-6.408691,-6.286621,-11.230468"
"-0.149780,0.012939,-0.934814,-18.371582,-5.310058,-22.277830"
"-0.147339,-0.056641,-0.957397,-19.531250,-3.356933,-20.324705"
"-0.153564,-0.047607,-0.987427,-19.042969,-4.455566,-19.958496"
"-0.142212,-0.170898,-0.985962,-0.915527,-5.187988,-17.700195"
"-0.132690,-0.160400,-0.999023,7.568359,-4.943848,-12.084960"
"-0.128174,-0.022339,-0.970703,4.760742,-9.277344,-3.356933"
"-0.137451,-0.026367,-0.947754,-9.338379,-10.009766,-6.652832"
"-0.151733,0.068604,-0.972534,-16.723633,-8.056641,-7.507324"
"-0.136230,-0.134399,-0.963135,-21.362303,-9.277344,-23.803709"
"-0.126221,-0.266968,-0.998291,-10.864257,-6.652832,-22.949217"
"-0.119995,-0.254028,-1.006470,1.403808,-11.108397,-3.234863"
"-0.120972,-0.099976,-0.989868,5.859375,-12.207030,4.028320"
"-0.149414,0.043701,-1.010986,3.112793,-12.756347,3.356933"
"-0.146729,0.020142,-0.964600,-7.812500,-15.136718,-11.596679"
"-0.119019,-0.111328,-0.924316,-7.934570,-10.253905,-25.756834"
"-0.104370,-0.249878,-0.976562,-1.647949,-4.333496,-13.610839"
"-0.099121,-0.162109,-0.964966,8.422852,-3.967285,-6.286621"
"-0.101929,-0.109863,-1.001465,3.906250,-5.432128,-7.019042"
"-0.096191,-0.092285,-0.935547,0.610352,-5.737304,-10.803222"
"-0.116821,-0.130005,-0.985474,3.723144,-2.441406,-12.634276"
"-0.117676,-0.208374,-1.033936,3.845215,-0.854492,-14.587401"
"-0.086548,-0.230347,-0.986694,4.150391,-3.967285,-8.911133"
"-0.083984,-0.180664,-0.959595,11.779784,-3.967285,-0.183105"
"-0.095459,-0.078979,-0.958740,6.408691,-1.281738,-3.784179"
"-0.093506,-0.107056,-0.968384,-2.807617,0.915527,-11.718749"
"-0.086914,-0.199585,-1.017456,-0.854492,0.488281,-7.080078"
"-0.095581,-0.164551,-1.010132,6.286621,-1.586914,-1.342773"
"-0.100952,-0.105835,-0.989014,21.301268,-1.831055,4.089355"
"-0.100220,-0.057129,-0.975708,21.179197,-0.610352,4.272461"
"-0.088257,-0.047119,-0.951782,14.160155,-0.244141,1.342773"
"-0.086914,-0.079102,-0.966309,13.854980,2.075195,0.610352"
"-0.100708,-0.031738,-1.001709,10.864257,2.929687,1.708984"
"-0.080688,-0.149292,-0.979492,-1.403808,1.342773,-4.638672"
"-0.074341,-0.208984,-0.987183,1.220703,3.051758,-0.549316"
"-0.087769,-0.155884,-1.003418,-0.183105,1.525879,8.605957"
"-0.093872,-0.088013,-0.979614,-0.549316,0.793457,7.080078"
"-0.084351,-0.138550,-0.967285,1.464844,3.356933,5.065917"
"-0.091309,-0.156738,-0.975952,-3.662109,4.882812,7.812500"
"-0.093628,-0.190430,-1.009644,-5.065917,5.615234,7.873535"
"-0.101440,-0.143311,-1.004517,0.305176,4.455566,14.587401"
"-0.105225,-0.088989,-0.986938,0.061035,3.051758,17.517090"
"-0.108521,-0.094971,-0.986450,-2.136230,3.173828,14.343261"
"-0.114014,-0.078369,-0.968018,-2.990722,2.807617,14.892577"
"-0.115967,-0.080322,-0.972656,-6.103515,4.455566,12.634276"
"-0.097778,-0.132568,-0.960693,-1.953125,6.713867,11.474608"
"-0.117188,-0.074097,-0.991211,4.638672,8.361816,19.531250"
"-0.133789,-0.019287,-0.991455,-1.403808,5.493164,20.202635"
"-0.129639,-0.050903,-0.961792,-3.662109,4.150391,13.732909"
"-0.132935,-0.119263,-0.991577,-0.427246,9.338379,14.465331"
"-0.139526,-0.099365,-1.024902,-2.319336,7.995605,19.287109"
"-0.142822,-0.047852,-0.991455,-3.356933,1.342773,19.470215"
"-0.139893,-0.042114,-0.948364,-1.159668,5.859375,18.066406"
"-0.141724,-0.048584,-1.008545,1.892090,7.141113,17.944336"
"-0.141479,-0.033325,-0.954102,4.638672,3.845215,18.859863"
"-0.145020,-0.031860,-0.957153,11.474608,7.751464,17.761230"
"-0.142334,-0.019287,-1.038330,8.728027,9.704590,16.418457"
"-0.137085,-0.030396,-0.980469,0.366211,0.854492,15.258788"
"-0.151611,-0.003052,-0.958252,-4.943848,3.112793,15.930175"
"-0.158447,-0.035156,-1.038940,-12.573241,5.798339,12.207030"
"-0.139893,-0.123291,-0.949219,-1.831055,0.488281,11.047362"
"-0.148315,-0.104492,-0.948608,6.103515,6.042480,20.874022"
"-0.165894,-0.003174,-1.020264,7.019042,4.211426,22.277830"
"-0.151489,0.011719,-0.941772,9.887695,1.403808,20.202635"
"-0.160034,0.047852,-0.952637,15.808105,6.835937,18.737793"
"-0.157227,0.020874,-1.009888,13.000487,9.277344,11.718749"
"-0.151611,-0.005249,-1.012085,5.065917,4.882812,8.789063"
"-0.148682,-0.023071,-1.009399,1.831055,1.281738,10.314940"
"-0.157837,0.008545,-0.954468,-0.183105,1.525879,16.235352"
"-0.164917,0.088379,-0.941040,1.220703,4.516602,15.319823"
"-0.164185,0.040771,-1.018921,7.873535,9.338379,8.911133"
"-0.184570,0.074341,-1.038574,10.742187,5.187988,10.925292"
"-0.192383,0.104858,-1.025635,9.826660,0.610352,9.399414"
"-0.177246,0.056885,-0.993408,9.582520,-0.244141,4.455566"
"-0.176147,0.056763,-1.003662,9.277344,1.647949,5.676269"
"-0.190430,0.127441,-1.034180,8.056641,2.197266,6.042480"
"-0.195312,0.145264,-1.029785,5.126953,-0.732422,0.427246"
"-0.186035,0.108887,-0.997559,7.507324,-0.549316,-5.065917"
"-0.174683,0.076782,-0.998413,6.286621,-0.366211,-5.676269"
"-0.185547,0.082642,-1.010498,5.065917,0.488281,-4.516602"
"-0.197144,0.134155,-1.028687,2.258301,-0.488281,-4.882812"
"-0.208374,0.144897,-1.024780,-8.605957,-3.173828,-10.192870"
"-0.178833,0.094238,-1.023438,-5.737304,-3.173828,-18.005371"
"-0.157715,0.044434,-1.012573,-6.286621,-6.103515,-20.080564"
"-0.171265,0.032104,-0.959229,-8.483887,-5.554199,-15.075683"
"-0.178223,0.084351,-0.974243,-5.554199,-3.723144,-15.563964"
"-0.168701,0.067139,-0.943359,-1.220703,-1.464844,-20.446775"
"-0.153809,0.041382,-0.956421,2.441406,3.112793,-22.644041"
"-0.159424,0.014893,-0.940186,-12.817382,5.554199,-26.550291"
"-0.182983,0.025269,-1.030151,-18.249512,9.826660,-28.686522"
"-0.178223,-0.008423,-1.055664,-13.671874,5.493164,-31.921385"
"-0.162842,-0.088379,-1.012451,-15.197753,-2.929687,-24.841307"
"-0.155640,-0.035278,-0.923706,-12.268065,-1.098633,-19.531250"
"-0.172729,0.012573,-1.027710,-9.643555,-0.549316,-18.432617"
"-0.167969,0.027832,-0.978149,-14.831542,-10.375976,-22.399900"
"-0.158569,-0.030762,-0.956543,-20.874022,-9.704590,-26.977537"
"-0.153931,-0.026001,-0.974243,-23.315428,-8.544922,-24.047850"
"-0.125366,-0.099609,-0.964233,-23.925779,-11.718749,-25.329588"
"-0.099487,-0.158691,-0.872559,-21.667479,-15.014647,-22.521971"
"-0.095947,-0.158813,-0.885864,-20.385740,-7.568359,-15.808105"
"-0.116699,-0.088135,-0.936768,-18.859863,-6.042480,-11.657714"
"-0.151123,-0.007690,-0.925659,-16.235352,-3.662109,-14.892577"
"-0.148193,-0.127441,-1.006348,-16.052246,1.831055,-27.526854"
"-0.144287,-0.181274,-0.988159,-14.404296,-2.685547,-26.428221"
"-0.137207,-0.217529,-0.982178,-7.629394,-1.525879,-20.141600"
"-0.121216,-0.245728,-0.997803,-6.286621,-3.234863,-17.272949"
"-0.123901,-0.239624,-0.970093,-8.300781,-5.859375,-10.925292"
""
"-0.137695,-0.151855,-1.020142,8.422852,6.347656,21.850584"
"-0.137573,-0.155396,-0.947144,13.305663,4.394531,25.085447"
"-0.155518,-0.086426,-0.972046,15.136718,7.263183,26.855467"
"-0.157959,-0.079224,-1.002075,15.869140,7.385253,23.986814"
"-0.147827,-0.085449,-0.967896,13.854980,3.173828,23.498533"
"-0.150024,-0.080078,-0.967163,8.178711,1.708984,23.925779"
"-0.155762,-0.082520,-0.976929,4.699707,0.366211,23.254393"
"-0.151001,-0.102417,-0.949707,5.676269,-0.488281,22.033689"
"-0.149536,-0.067993,-0.986206,5.920410,3.723144,24.780272"
"-0.151367,-0.034424,-1.002441,4.211426,3.234863,26.550291"
"-0.148437,-0.001831,-0.951172,6.713867,0.549316,22.888182"
"-0.150757,-0.002319,-0.912598,12.268065,4.516602,21.728514"
"-0.161621,0.041504,-1.008789,20.507811,13.061522,21.545408"
"-0.164673,0.026733,-0.973022,16.662598,8.361816,18.005371"
"-0.164673,0.004272,-1.002930,11.962890,7.446289,15.991210"
"-0.158813,0.018311,-0.983032,9.094238,3.295898,18.066406"
"-0.164185,0.066040,-0.926270,10.070800,6.164550,16.723633"
"-0.169800,0.060547,-1.021729,16.845703,12.023925,10.925292"
"-0.170410,0.054810,-1.029053,19.775391,6.103515,7.812500"
"-0.175293,0.037598,-0.984619,20.751951,5.798339,6.896972"
"-0.188354,0.034790,-1.045776,18.188477,6.835937,6.652832"
"-0.191406,0.017822,-1.020508,10.620116,2.258301,6.225585"
"-0.199463,0.077271,-1.004395,4.089355,1.037598,7.568359"
"-0.201904,0.083374,-1.022095,3.845215,1.220703,3.051758"
"-0.199097,0.075806,-1.009399,5.065917,-2.014160,-1.037598"
"-0.189331,0.061890,-0.977661,4.211426,1.037598,-0.549316"
"-0.202026,0.102905,-1.052246,4.699707,-0.671387,-2.075195"
"-0.193970,0.078125,-1.001587,7.202148,-3.540039,-4.333496"
"-0.194092,0.071777,-0.998291,8.361816,-2.014160,-5.249023"
"-0.201050,0.100586,-1.036987,6.042480,-0.366211,-4.272461"
"-0.203247,0.167358,-1.017090,-6.896972,-5.920410,-10.375976"
"-0.175659,0.070312,-0.968872,-8.544922,-4.760742,-16.845703"
"-0.154419,-0.001221,-0.942993,-5.493164,-1.342773,-15.502929"
"-0.165405,0.057861,-0.998657,-7.324218,2.746582,-12.939452"
"-0.162964,0.071045,-0.996460,-7.568359,-1.220703,-15.258788"
"-0.168701,0.032349,-0.966064,-19.653320,-5.493164,-13.977050"
"-0.171753,0.013672,-0.948608,-33.996582,-4.638672,-11.413573"
"-0.177002,-0.009033,-0.995483,-37.780762,-2.990722,-11.291503"
"-0.170166,-0.023682,-0.975708,-29.296873,-3.967285,-13.183593"
"-0.173462,0.067139,-0.935669,-4.821777,0.244141,-15.380858"
"-0.173462,0.135376,-0.937988,-5.004883,5.432128,-25.756834"
"-0.146729,0.028809,-0.955078,-21.362303,4.455566,-40.771481"
"-0.135986,-0.209717,-1.031250,-14.770507,-4.333496,-29.479979"
"-0.142334,-0.153320,-0.975464,-8.972168,-9.826660,-20.629881"
"-0.135864,-0.110718,-0.947510,-2.807617,-9.765625,-15.136718"
"-0.145996,-0.020264,-0.900513,2.319336,-7.324218,-10.253905"
"-0.166870,0.077637,-0.938110,-2.136230,-2.136230,-13.610839"
"-0.162231,-0.049438,-0.981323,-16.845703,-2.807617,-28.991697"
"-0.158081,-0.144409,-0.984497,-29.602049,-6.713867,-33.203125"
"-0.137695,-0.278931,-1.019653,-25.512693,-9.338379,-21.850584"
"-0.116699,-0.282593,-1.016113,-21.484373,-11.657714,-13.793944"
"-0.146606,-0.172852,-0.964111,-13.549804,-16.113281,2.136230"
"-0.171753,0.029419,-0.924438,-9.399414,-11.596679,4.455566"
"-0.144653,-0.109985,-1.030762,-10.131835,-3.417969,-15.258788"
"-0.137329,-0.207275,-0.999023,-15.686034,-11.413573,-14.526366"
"-0.132324,-0.199341,-0.988159,-18.127441,-13.488769,-9.521484"
"-0.117188,-0.222900,-0.959106,-12.573241,-13.244628,-10.131835"
"-0.108521,-0.194580,-0.952148,-6.164550,-7.629394,-4.089355"
"-0.121338,-0.110962,-0.977905,-5.065917,-7.690429,-3.784179"
"-0.118164,-0.135864,-0.975952,-10.559081,-8.300781,-9.948730"
"-0.115112,-0.211792,-1.002563,-12.817382,-7.080078,-14.404296"
"-0.093262,-0.224854,-0.923218,-11.657714,-8.483887,-13.671874"
"-0.081177,-0.290161,-0.969482,-5.615234,-1.342773,-12.207030"
"-0.091553,-0.249146,-0.992187,1.342773,-1.892090,-2.990722"
"-0.096680,-0.185425,-0.957886,1.953125,-2.624511,-4.882812"
"-0.091797,-0.216187,-0.967163,1.342773,-1.403808,-4.211426"
"-0.107788,-0.142456,-0.968628,5.798339,-0.061035,-0.183105"
"-0.102539,-0.171387,-0.990234,-0.244141,1.159668,-5.249023"
"-0.092773,-0.233032,-0.975830,-7.629394,-0.488281,-7.324218"
"-0.088135,-0.255005,-0.985840,-6.347656,0.244141,-0.122070"
"-0.091553,-0.212524,-0.980835,2.929687,-0.427246,2.380371"
"-0.090576,-0.209595,-0.953857,6.042480,0.183105,4.455566"
"-0.097900,-0.181030,-0.931274,3.967285,4.455566,5.615234"
"-0.105591,-0.166016,-0.984009,1.403808,5.920410,3.784179"
"-0.103882,-0.231934,-0.986572,-1.647949,4.028320,0.000000"
"-0.110840,-0.221069,-0.998535,0.061035,3.723144,3.662109"
"-0.113525,-0.181885,-0.982056,-0.122070,2.136230,6.774902"
"-0.114136,-0.136108,-0.962646,-1.770019,4.516602,1.281738"
"-0.099731,-0.212280,-0.982666,-3.845215,4.760742,-1.159668"
"-0.100464,-0.207764,-0.963745,-10.925292,2.136230,2.685547"
"-0.111694,-0.189209,-0.993164,-11.352538,2.990722,6.042480"
"-0.112183,-0.221191,-0.983643,-14.892577,-0.183105,6.896972"
"-0.104614,-0.221191,-0.909790,-17.395020,-1.770019,10.864257"
"-0.103760,-0.209473,-0.904541,-3.173828,6.835937,15.747069"
"-0.111084,-0.146240,-0.964722,11.169433,10.986327,16.906738"
"-0.120117,-0.146851,-0.978516,15.441894,10.314940,16.235352"
"-0.118042,-0.156982,-0.942505,9.521484,7.446289,15.686034"
"-0.136230,-0.087402,-0.939087,3.112793,9.399414,18.493652"
"-0.146118,-0.059814,-0.975464,-7.263183,10.925292,14.099120"
"-0.137695,-0.115967,-0.978638,-10.375976,8.361816,9.521484"
"-0.121216,-0.235596,-0.956543,3.601074,7.141113,5.859375"
"-0.135498,-0.200317,-0.977905,22.583006,8.117676,16.723633"
"-0.139893,-0.164429,-0.977905,21.179197,7.446289,22.949217"
"-0.146362,-0.105713,-0.973022,12.451171,5.981445,24.475096"
"-0.161011,-0.064209,-0.957764,12.878417,7.202148,20.263670"
"-0.161011,-0.071655,-0.998779,10.253905,6.103515,14.526366"
"-0.148071,-0.153320,-0.980347,11.108397,3.295898,12.634276"
"-0.145020,-0.189453,-0.981445,24.414061,4.150391,17.517090"
"-0.159546,-0.068481,-0.990234,27.709959,5.249023,27.465818"
"-0.165527,-0.012695,-0.969604,17.211914,3.662109,24.719236"
"-0.162354,-0.034668,-0.985596,11.291503,5.249023,15.930175"
"-0.157715,-0.058960,-0.994141,2.319336,2.807617,13.305663"
"-0.149048,-0.098999,-0.980957,0.671387,2.319336,12.756347"
"-0.140991,-0.126953,-0.964966,6.286621,3.173828,15.380858"
"-0.156250,-0.080322,-0.958130,18.066406,5.004883,22.094725"
"-0.163818,-0.036743,-0.975098,19.836426,6.469726,23.071287"
"-0.164795,0.008911,-0.966797,15.380858,5.371093,16.601562"
"-0.153931,-0.016968,-0.990356,12.817382,7.202148,12.451171"
"-0.146973,-0.085083,-0.994385,13.122558,6.408691,10.437011"
"-0.157227,-0.062378,-0.984741,19.897461,4.760742,17.211914"
"-0.158936,-0.039795,-0.984863,22.766111,4.333496,20.446775"
"-0.174927,0.021362,-0.959473,17.089844,6.286621,18.920898"
"-0.190918,0.095581,-0.998291,12.329101,8.422852,13.732909"
"-0.188965,0.103638,-1.037231,10.009766,7.080078,8.544922"
"-0.175171,-0.008545,-1.003174,5.249023,1.037598,0.305176"
"-0.173706,-0.018677,-1.006226,6.896972,0.061035,3.967285"
"-0.172852,0.020264,-0.984741,11.352538,-0.244141,6.652832"
"-0.178101,0.052734,-0.959351,6.408691,0.976562,5.493164"
"-0.192139,0.073364,-1.018921,0.793457,3.784179,0.305176"
"-0.199219,0.086182,-1.029785,-0.549316,1.220703,-0.732422"
"-0.202515,0.110474,-1.026001,-4.577637,-1.342773,-4.028320"
"-0.176025,-0.006226,-0.988037,-8.239746,-3.967285,-11.718749"
"-0.159790,-0.074829,-0.990967,-3.906250,-2.197266,-9.216309"
"-0.174316,0.064941,-0.983032,1.953125,-1.831055,-0.061035"
"-0.189941,0.152588,-0.964844,-1.464844,-0.549316,-4.394531"
"-0.205444,0.145630,-1.023315,-9.094238,2.929687,-14.770507"
"-0.208252,0.139771,-1.030518,-15.563964,-2.136230,-22.216795"
"-0.192993,0.011719,-1.035400,-17.333984,-5.859375,-28.991697"
""
"-0.126221,-0.085449,-0.964722,-2.624511,-0.305176,-5.004883"
"-0.117310,-0.223877,-0.979126,-12.817382,-0.061035,-12.817382"
"-0.115479,-0.277954,-1.005615,-12.939452,-0.244141,-7.385253"
"-0.108032,-0.263428,-0.990112,-9.643555,-3.051758,0.366211"
"-0.107300,-0.247314,-0.947144,3.479004,-1.953125,6.530761"
"-0.117676,-0.145996,-0.944580,7.324218,3.295898,4.516602"
"-0.108032,-0.192139,-0.945679,4.577637,3.845215,1.098633"
"-0.115479,-0.212891,-0.957153,-0.427246,4.943848,0.671387"
"-0.127930,-0.217896,-0.999878,-1.892090,6.530761,0.915527"
"-0.125000,-0.247070,-1.005981,-8.056641,3.601074,1.403808"
"-0.117798,-0.272827,-0.968140,-6.530761,1.220703,5.981445"
"-0.128540,-0.184937,-0.951416,-5.737304,4.882812,11.352538"
"-0.145386,-0.135376,-0.979004,-12.634276,3.295898,5.676269"
"-0.128418,-0.158325,-0.953613,-15.869140,2.319336,3.417969"
"-0.112183,-0.237427,-0.916504,-4.150391,3.112793,2.258301"
"-0.139404,-0.156738,-0.941284,2.502441,8.300781,11.047362"
"-0.149170,-0.144531,-0.950684,2.990722,10.803222,9.765625"
"-0.143921,-0.166016,-0.964355,8.850098,12.573241,8.911133"
"-0.144897,-0.217041,-1.018311,8.911133,12.451171,10.314940"
"-0.157227,-0.197632,-0.957764,5.859375,6.652832,17.639160"
"-0.174072,-0.054687,-0.941895,10.375976,9.704590,24.902342"
"-0.172119,-0.042114,-0.986450,5.676269,12.451171,18.066406"
"-0.166870,-0.139893,-0.978149,0.732422,8.178711,11.718749"
"-0.169434,-0.143921,-0.997070,5.310058,6.469726,16.296387"
"-0.177002,-0.126831,-0.973633,12.695312,2.502441,18.249512"
"-0.167358,-0.150513,-0.946655,18.737793,5.004883,18.859863"
"-0.173462,-0.080322,-0.976807,21.423338,10.314940,22.888182"
"-0.183594,-0.015869,-0.990234,15.930175,9.460449,22.277830"
"-0.180542,-0.041504,-0.957275,16.174316,5.493164,15.380858"
"-0.176025,-0.109131,-0.975708,22.827147,7.263183,12.084960"
"-0.176880,-0.129639,-1.019165,21.179197,2.441406,20.141600"
"-0.175781,-0.044067,-0.941772,19.470215,0.488281,21.667479"
"-0.178711,-0.026978,-0.958618,16.845703,4.333496,17.944336"
"-0.180542,-0.022339,-0.953491,15.319823,4.577637,13.488769"
"-0.179687,-0.029663,-0.948853,10.803222,6.164550,7.629394"
"-0.175415,-0.137695,-0.996826,12.329101,8.178711,5.737304"
"-0.175293,-0.143188,-0.994141,18.066406,6.896972,13.732909"
"-0.200928,-0.048584,-1.000000,23.864744,5.859375,22.827147"
"-0.208496,-0.003418,-1.004639,21.301268,3.051758,22.521971"
"-0.211426,0.046509,-0.971802,13.793944,2.868652,15.624999"
"-0.196899,0.020142,-0.988281,12.939452,3.295898,8.483887"
"-0.186401,-0.027344,-0.960449,10.681151,4.516602,9.887695"
"-0.188354,-0.055786,-1.017578,9.460449,5.981445,9.094238"
"-0.198242,-0.056396,-0.998169,14.709472,1.831055,12.695312"
"-0.213013,0.049072,-0.988525,15.991210,0.610352,18.737793"
"-0.212524,0.071655,-0.984009,14.892577,0.976562,13.793944"
"-0.195557,0.059448,-0.977539,14.587401,1.403808,10.498046"
"-0.185913,0.011597,-0.984009,10.375976,2.014160,6.225585"
"-0.179077,-0.014771,-0.993164,6.225585,0.610352,6.469726"
"-0.188721,0.047607,-0.969482,5.371093,-2.197266,10.864257"
"-0.199951,0.095093,-0.971680,5.310058,-2.014160,9.887695"
"-0.198730,0.107788,-0.937866,7.324218,1.708984,1.525879"
"-0.208374,0.060791,-1.015503,6.652832,4.882812,-0.610352"
"-0.208008,0.066895,-1.007690,2.624511,1.403808,-1.708984"
"-0.204102,0.041016,-1.003418,1.403808,-0.061035,-3.601074"
"-0.218506,0.121582,-1.005493,0.976562,-0.610352,-0.793457"
"-0.218750,0.152954,-0.983765,2.624511,-0.488281,-5.737304"
"-0.217529,0.136475,-0.988281,-3.479004,1.464844,-13.122558"
"-0.212769,0.088623,-1.018311,-12.756347,-2.441406,-17.211914"
"-0.208008,0.022705,-1.015015,-13.549804,-4.638672,-18.127441"
"-0.197144,-0.014404,-1.003296,-5.249023,-5.920410,-16.113281"
"-0.191284,0.077393,-0.943726,-0.732422,-6.591796,-8.666992"
"-0.193726,0.131104,-0.911865,2.624511,-2.563476,-9.765625"
"-0.192749,0.151733,-0.942261,0.732422,4.028320,-17.028809"
"-0.193970,0.124634,-0.979858,-8.544922,3.540039,-24.169920"
"-0.185181,0.014771,-0.997192,-13.854980,-1.403808,-27.099607"
"-0.182129,-0.061157,-0.973633,-14.160155,-3.356933,-21.240232"
"-0.193359,0.000854,-0.948486,-12.573241,-2.563476,-18.066406"
"-0.207886,0.065063,-0.980469,-3.723144,0.305176,-16.845703"
"-0.188843,0.006470,-0.947998,-4.089355,-3.051758,-24.597166"
"-0.194336,-0.133789,-1.034180,-7.812500,1.098633,-28.869627"
"-0.195923,-0.127319,-1.052979,-10.192870,-5.432128,-18.066406"
"-0.193481,-0.060059,-0.997314,-16.052246,-14.892577,-9.948730"
"-0.188599,0.026855,-0.913086,-18.493652,-11.169433,-19.897461"
"-0.176880,-0.062622,-0.943726,-15.258788,-7.263183,-24.108885"
"-0.178101,-0.038208,-0.979736,-15.747069,-5.065917,-24.047850"
"-0.160522,-0.178711,-0.993164,-18.310547,-6.347656,-28.808592"
"-0.139160,-0.238281,-0.995361,-15.624999,-8.117676,-19.653320"
"-0.144775,-0.185547,-0.990234,-9.338379,-10.864257,-3.723144"
"-0.168335,0.011963,-0.964966,-12.573241,-13.366698,-3.479004"
"-0.164185,0.057861,-0.903687,-18.249512,-10.437011,-16.113281"
"-0.155518,-0.055420,-0.932007,-18.615723,-6.164550,-22.644041"
"-0.140625,-0.253662,-1.034180,-13.488769,-0.122070,-26.733397"
"-0.134521,-0.286133,-1.045776,-5.798339,-6.164550,-13.061522"
"-0.139038,-0.196533,-0.992065,-3.051758,-10.803222,3.784179"
"-0.165039,0.026611,-0.965942,-7.202148,-11.779784,3.417969"
"-0.152954,0.057983,-0.910278,-8.544922,-10.498046,-5.676269"
"-0.141235,-0.102173,-0.977051,-17.761230,-4.333496,-23.376463"
"-0.119629,-0.339233,-1.005859,-22.888182,-6.225585,-26.672361"
"-0.117432,-0.308838,-1.002441,-8.911133,-6.042480,-9.399414"
"-0.126099,-0.150513,-0.991577,-1.586914,-7.263183,3.540039"
"-0.142944,-0.107666,-0.943237,-2.441406,-7.568359,2.868652"
"-0.162476,0.016846,-0.978516,-5.371093,-1.708984,-11.535644"
"-0.122681,-0.167725,-0.987671,-7.873535,-3.601074,-19.470215"
"-0.099487,-0.267822,-0.981323,-14.099120,-6.103515,-16.662598"
"-0.096069,-0.250610,-0.967651,-9.277344,-5.065917,-5.798339"
"-0.111694,-0.099976,-0.946289,-1.831055,-2.746582,3.234863"
"-0.116699,-0.086060,-0.957642,0.793457,0.793457,-2.685547"
"-0.117676,-0.135986,-0.962158,-2.685547,1.770019,-8.056641"
"-0.107910,-0.211304,-0.986816,-9.033203,0.305176,-6.713867"
"-0.104736,-0.210571,-0.973999,-10.192870,-1.159668,-4.943848"
"-0.111328,-0.193115,-0.959229,-9.338379,0.061035,-3.051758"
"-0.105713,-0.201294,-0.956177,-6.896972,2.319336,-4.333496"
"-0.109009,-0.242310,-0.935547,-8.056641,4.516602,-4.943848"
"-0.111816,-0.273682,-1.010498,-10.620116,6.286621,-3.479004"
"-0.114380,-0.287354,-0.985474,-11.169433,1.892090,1.159668"
"-0.138184,-0.164551,-0.953369,-13.000487,0.732422,7.873535"
"-0.136719,-0.109619,-0.931641,-24.475096,2.258301,2.258301"
"-0.120117,-0.177368,-0.921997,-32.592773,6.652832,-9.826660"
"-0.099243,-0.378174,-0.973877,-18.554687,7.995605,-3.784179"
"-0.108887,-0.391846,-0.967529,-9.155273,6.958007,8.422852"
"-0.146851,-0.174683,-0.975220,4.272461,6.896972,28.930662"
"-0.152466,-0.096680,-0.913208,14.953612,6.896972,24.353025"
"-0.144775,-0.120972,-0.927734,12.268065,13.000487,14.099120"
"-0.140869,-0.214844,-0.954224,7.812500,13.977050,14.587401"
"-0.154541,-0.198364,-0.977417,11.535644,13.671874,20.385740"
"-0.169189,-0.082642,-0.976685,16.601562,11.230468,27.893064"
"-0.169312,-0.091064,-0.952759,9.277344,9.094238,21.728514"
"-0.163574,-0.144653,-0.947266,14.831542,11.657714,19.714355"
"-0.168823,-0.144531,-0.978271,22.888182,12.634276,21.484373"
"-0.177856,-0.098022,-0.990967,23.681639,9.704590,24.475096"
"-0.185791,-0.049805,-0.963623,12.573241,6.469726,25.512693"
"-0.184692,-0.026978,-0.954346,9.887695,7.019042,22.644041"
"-0.181641,-0.058838,-0.973511,14.770507,8.728027,17.578125"
"-0.174927,-0.079712,-0.996948,14.526366,5.981445,20.141600"
"-0.182983,-0.083618,-0.963501,19.836426,6.713867,20.568846"
"-0.190430,-0.080200,-0.982666,22.705076,8.056641,21.179197"
"-0.196411,-0.032837,-0.988403,25.451658,7.507324,22.583006"
""
"-0.157227,-0.089600,-0.983154,-12.390136,-7.202148,-25.512693"
"-0.153687,-0.121826,-0.959595,-25.695799,-11.047362,-16.723633"
"-0.156372,-0.061035,-0.945801,-30.700682,-11.474608,-14.892577"
"-0.163940,-0.054321,-0.951660,-29.174803,-9.155273,-16.235352"
"-0.185669,-0.027100,-0.991943,-25.207518,-6.958007,-17.822266"
"-0.175415,-0.164673,-1.009277,-14.709472,-7.080078,-23.376463"
"-0.173706,-0.183594,-0.988037,-6.530761,-8.666992,-14.770507"
"-0.171631,-0.100952,-0.948364,-4.211426,-3.662109,-11.352538"
"-0.153198,-0.088257,-1.013428,-4.943848,-2.746582,-11.779784"
"-0.144897,-0.002075,-0.959351,-16.296387,-10.131835,-10.009766"
"-0.148071,0.005005,-0.935913,-15.808105,-9.704590,-15.136718"
"-0.141235,-0.038452,-0.944092,-7.995605,-5.920410,-17.272949"
"-0.150391,-0.072754,-0.962524,-10.131835,-5.981445,-17.944336"
"-0.146362,-0.142212,-0.984131,-7.690429,-3.601074,-16.052246"
"-0.149292,-0.172974,-1.041382,-5.615234,-9.094238,-7.629394"
"-0.163330,-0.044312,-0.986206,-9.094238,-12.512206,-2.990722"
"-0.186157,0.039307,-0.956543,-18.249512,-11.840819,-6.225585"
"-0.154907,-0.101318,-0.974731,-18.127441,-6.225585,-21.728514"
"-0.132202,-0.211548,-1.011230,-10.192870,-4.821777,-22.644041"
"-0.121582,-0.225220,-1.008545,-7.324218,-8.728027,-15.197753"
"-0.108032,-0.267944,-1.000610,-3.112793,-11.779784,-9.887695"
"-0.095459,-0.216797,-0.920532,-6.835937,-11.901855,-0.061035"
"-0.113037,-0.106567,-0.895996,-10.620116,-0.671387,-4.089355"
"-0.122314,-0.121948,-0.995483,-11.901855,-1.037598,-13.000487"
"-0.104980,-0.218506,-0.959595,-9.521484,-2.319336,-14.221190"
"-0.106079,-0.234619,-1.010132,-6.713867,-0.671387,-8.972168"
"-0.096069,-0.222412,-0.943726,-4.028320,-4.333496,-3.479004"
"-0.101563,-0.213257,-0.955322,5.126953,1.708984,0.061035"
"-0.108154,-0.191650,-1.010864,6.042480,3.845215,1.342773"
"-0.104126,-0.177246,-0.961548,-5.249023,-0.915527,0.793457"
"-0.095703,-0.184692,-0.939087,-8.239746,4.333496,-1.708984"
"-0.095825,-0.222900,-0.963257,-5.737304,5.187988,-1.647949"
"-0.102173,-0.241821,-0.953247,-3.356933,5.859375,0.366211"
"-0.108887,-0.268921,-1.014404,3.845215,8.789063,3.479004"
"-0.109009,-0.256592,-1.026855,6.469726,4.089355,9.826660"
"-0.116455,-0.204712,-0.944702,3.173828,1.586914,12.451171"
"-0.130737,-0.153076,-0.918945,-0.610352,5.493164,13.610839"
"-0.147827,-0.119873,-0.958130,-0.244141,10.498046,11.718749"
"-0.150635,-0.129150,-0.972900,2.014160,12.145995,7.080078"
"-0.148926,-0.172729,-0.982544,13.000487,11.657714,6.774902"
"-0.153809,-0.168213,-0.966309,15.441894,14.160155,12.145995"
"-0.169434,-0.143188,-1.010010,13.122558,13.366698,14.099120"
"-0.185913,-0.052734,-1.002441,3.906250,8.911133,16.479492"
"-0.173950,-0.115112,-0.994873,-3.906250,6.591796,9.216309"
"-0.163208,-0.183716,-0.965088,8.605957,6.835937,13.061522"
"-0.172974,-0.129761,-1.025879,16.540527,6.225585,23.132322"
"-0.173706,-0.079346,-0.961304,17.272949,2.014160,23.925779"
"-0.178223,-0.007202,-0.942871,16.723633,3.051758,24.658201"
"-0.179443,0.005371,-0.958008,14.831542,5.004883,18.920898"
"-0.171143,-0.026123,-0.964844,11.718749,4.943848,15.624999"
"-0.156128,-0.134155,-1.008423,8.544922,5.310058,12.573241"
"-0.163208,-0.055054,-0.973633,15.563964,0.610352,23.193357"
"-0.178101,-0.005249,-0.946777,23.742674,1.281738,27.099607"
"-0.188599,0.063843,-0.955933,25.634764,3.845215,25.024412"
"-0.174316,0.036133,-0.962646,20.141600,5.249023,15.991210"
"-0.163818,-0.026367,-0.982178,11.779784,4.577637,11.840819"
"-0.163574,-0.032593,-0.967651,14.404296,3.601074,14.892577"
"-0.172974,0.001465,-0.964600,8.972168,4.150391,16.784668"
"-0.172974,-0.035278,-0.973022,10.498046,5.310058,13.305663"
"-0.173096,-0.047607,-0.993164,14.404296,4.821777,17.883301"
"-0.182251,-0.008423,-0.965942,13.244628,3.662109,17.883301"
"-0.192383,0.024170,-0.978638,8.850098,5.554199,17.150879"
"-0.191772,0.016846,-0.998413,10.070800,5.126953,14.465331"
"-0.178955,-0.001343,-0.947754,14.099120,2.685547,12.756347"
"-0.180542,-0.018188,-0.957642,11.596679,6.408691,11.657714"
"-0.186523,-0.049805,-1.014526,17.883301,6.286621,14.038085"
"-0.203613,0.037720,-1.000854,19.531250,3.662109,19.104004"
"-0.223267,0.148682,-1.001831,17.211914,3.417969,18.127441"
"-0.222046,0.162231,-0.991821,11.596679,2.502441,11.169433"
"-0.211670,0.124268,-1.005859,7.019042,2.502441,5.004883"
"-0.210937,0.120117,-1.029907,-0.122070,-0.305176,3.601074"
"-0.210205,0.132446,-0.979126,0.671387,-3.295898,3.601074"
"-0.216919,0.170532,-0.989990,3.234863,-0.488281,2.807617"
"-0.226196,0.179932,-1.009888,4.516602,-0.183105,-2.136230"
"-0.219604,0.146240,-1.023926,-2.319336,-2.441406,-8.361816"
"-0.216919,0.119141,-1.023682,-8.728027,-5.493164,-12.084960"
"-0.203247,0.083008,-0.996460,-11.047362,-7.385253,-13.916015"
"-0.198364,0.061768,-0.955933,-14.038085,-4.760742,-12.817382"
"-0.200073,0.102905,-0.983521,-9.582520,-2.868652,-15.930175"
"-0.207642,0.124023,-0.976318,-8.056641,-3.173828,-22.949217"
"-0.173340,0.014526,-0.951660,-8.605957,-2.075195,-28.320311"
"-0.174072,-0.069580,-0.954224,-14.709472,1.403808,-28.320311"
"-0.176147,-0.065918,-0.984619,-11.962890,5.798339,-21.667479"
"-0.175171,-0.051880,-1.004395,-8.972168,1.586914,-14.892577"
"-0.183350,0.070190,-0.927979,-10.192870,2.868652,-13.671874"
"-0.193237,0.104858,-0.968750,-24.108885,2.746582,-22.399900"
"-0.190430,-0.029419,-0.972534,-27.648924,1.159668,-28.747557"
"-0.172974,-0.203613,-1.039551,-19.714355,-0.610352,-29.113768"
"-0.182129,-0.122070,-1.039917,-11.352538,-6.469726,-11.657714"
"-0.196899,0.063965,-0.988892,-9.521484,-11.352538,-2.014160"
"-0.199219,0.115845,-0.938721,-8.483887,-11.169433,-14.404296"
"-0.179443,0.047363,-0.916504,-20.507811,-6.530761,-27.954100"
"-0.158447,-0.159302,-0.979614,-26.489256,-6.103515,-30.822752"
"-0.157227,-0.193237,-0.963745,-26.000975,-9.155273,-19.714355"
"-0.168945,-0.064575,-0.970093,-18.066406,-8.911133,-4.272461"
"-0.171875,0.079590,-0.947388,-10.009766,-9.155273,-2.380371"
"-0.172607,0.081421,-0.920288,-11.901855,-6.530761,-16.662598"
"-0.163574,-0.040771,-0.976074,-13.000487,-2.929687,-27.038572"
"-0.153564,-0.234619,-1.021729,-11.596679,-5.798339,-22.888182"
"-0.148437,-0.254028,-1.039185,-7.141113,-9.033203,-11.657714"
"-0.170410,0.050537,-0.898315,0.671387,-15.563964,10.375976"
"-0.179565,0.169678,-0.942261,-9.216309,-5.615234,-1.098633"
"-0.167358,0.080688,-0.943726,-18.676758,-5.126953,-24.841307"
"-0.158081,-0.074707,-0.924316,-21.484373,-3.173828,-29.235838"
"-0.152832,-0.239136,-1.029175,-13.793944,-3.845215,-22.827147"
"-0.152954,-0.175659,-1.008301,-14.709472,-11.413573,-8.056641"
"-0.156982,-0.090332,-0.934937,-16.418457,-10.253905,-10.559081"
"-0.132202,-0.140869,-0.959595,-15.563964,-3.234863,-21.789549"
"-0.121094,-0.291382,-0.984619,-17.272949,-1.586914,-29.541014"
"-0.114624,-0.359863,-0.997070,-14.465331,-3.295898,-21.606443"
"-0.116089,-0.312134,-0.998169,-9.033203,-7.263183,-11.413573"
"-0.110962,-0.331543,-0.926514,-3.112793,-4.333496,-7.141113"
"-0.118042,-0.240723,-0.962646,-2.624511,-1.342773,-4.089355"
"-0.109375,-0.236328,-0.941895,-0.732422,-1.159668,-7.141113"
"-0.104126,-0.268799,-0.977783,-0.671387,1.831055,-7.019042"
"-0.110352,-0.265137,-0.990356,-5.859375,-0.244141,-1.525879"
"-0.105103,-0.244873,-0.926270,-0.732422,-1.708984,2.136230"
"-0.104858,-0.243286,-0.937866,4.089355,4.394531,5.004883"
"-0.118530,-0.197510,-0.977173,7.873535,4.089355,8.544922"
"-0.129150,-0.134888,-0.947388,7.690429,3.173828,8.361816"
"-0.128784,-0.162231,-0.978149,1.708984,4.455566,3.906250"
"-0.123901,-0.281860,-0.951538,-2.197266,4.089355,0.915527"
"-0.131348,-0.284302,-0.976440,0.000000,7.812500,8.239746"
"-0.144775,-0.239014,-1.007324,6.469726,5.249023,13.793944"
"-0.156006,-0.146729,-0.965088,10.131835,6.225585,12.939452"
"-0.157593,-0.124146,-0.971924,8.605957,6.530761,10.314940"
"-0.148560,-0.142456,-0.960571,1.037598,5.859375,5.004883"
"-0.141602,-0.217041,-0.970703,-4.760742,5.981445,2.014160"
""
"-0.225342,0.035156,-1.015503,2.441406,-0.061035,-0.122070"
"-0.231567,0.088745,-1.000000,3.601074,-2.197266,1.953125"
"-0.236694,0.161743,-1.007690,-1.342773,-2.685547,-0.183105"
"-0.231079,0.147827,-0.988159,-6.286621,-4.882812,-8.605957"
"-0.208374,0.092651,-0.974487,-7.812500,-4.577637,-11.474608"
"-0.198853,0.017944,-0.986206,-7.751464,-4.516602,-13.671874"
"-0.203979,0.032349,-0.975708,-7.263183,-5.310058,-11.352538"
"-0.209229,0.061157,-0.985352,-11.352538,-4.760742,-12.084960"
"-0.217285,0.077148,-0.975464,-11.535644,-5.004883,-14.404296"
"-0.228638,0.079346,-0.980347,-12.145995,-3.479004,-18.859863"
"-0.216309,-0.014648,-1.003906,-14.648437,-2.990722,-25.024412"
"-0.200195,-0.089600,-1.012085,-8.850098,-6.530761,-22.338865"
"-0.185181,-0.090454,-0.949951,-6.774902,-8.850098,-16.479492"
"-0.203979,-0.005249,-0.934326,0.427246,-4.089355,-9.826660"
"-0.184448,0.031982,-0.951782,15.258788,1.586914,-11.840819"
"-0.199707,0.061646,-0.936523,18.127441,2.197266,-13.977050"
"-0.176636,0.071655,-0.996338,14.160155,3.479004,-20.080564"
"-0.170654,-0.170410,-0.998047,-10.681151,-3.112793,-31.311033"
"-0.177124,-0.203003,-1.005859,-16.052246,-7.019042,-17.517090"
"-0.179443,-0.123901,-0.970581,-12.817382,-11.474608,-2.502441"
"-0.217896,0.047852,-0.933594,-5.187988,-8.728027,-3.845215"
"-0.207520,0.151245,-0.931763,-5.676269,-2.258301,-22.766111"
"-0.187256,-0.073853,-0.985962,-13.916015,-2.136230,-32.226562"
"-0.168457,-0.255615,-1.003662,-24.963377,-4.211426,-30.944822"
"-0.162231,-0.250000,-1.059448,-14.404296,-5.737304,-15.197753"
"-0.182373,-0.069946,-0.957275,-4.760742,-15.502929,-0.366211"
"-0.201416,0.067627,-0.930542,-5.981445,-12.329101,-3.234863"
"-0.195068,0.051758,-0.948364,-10.864257,-6.408691,-21.362303"
"-0.160522,-0.185059,-0.959351,-16.235352,-1.647949,-32.409668"
"-0.130859,-0.364502,-1.036499,-14.404296,-2.258301,-25.878904"
"-0.144287,-0.194580,-0.979370,-3.723144,-9.033203,-2.929687"
"-0.161987,-0.081909,-1.004150,4.638672,-7.080078,1.647949"
"-0.167480,0.011475,-0.960937,1.464844,-10.070800,-2.014160"
"-0.137207,-0.110962,-0.951416,-4.272461,-8.239746,-16.357422"
"-0.112183,-0.229614,-0.975464,-16.540527,-7.629394,-16.479492"
"-0.110840,-0.241821,-0.963379,-13.916015,-9.155273,-4.577637"
"-0.125854,-0.112061,-0.976440,-11.169433,-9.643555,1.892090"
"-0.130005,-0.062134,-0.893311,-7.568359,-9.765625,-0.732422"
"-0.139282,-0.090454,-0.967285,0.000000,1.647949,-7.629394"
"-0.126221,-0.169922,-1.025391,-1.403808,1.464844,-12.817382"
"-0.113647,-0.240234,-0.968018,-10.986327,-3.906250,-10.681151"
"-0.107178,-0.256226,-0.982056,-8.300781,-2.136230,-4.638672"
"-0.107910,-0.215576,-0.954956,-1.770019,-2.563476,1.525879"
"-0.106079,-0.187866,-0.958984,-1.708984,0.183105,-1.403808"
"-0.099731,-0.241089,-0.943237,0.671387,-0.122070,-0.732422"
"-0.101563,-0.205688,-0.950439,6.042480,2.563476,3.967285"
"-0.112915,-0.194946,-0.985840,3.662109,3.295898,3.417969"
"-0.116943,-0.242676,-0.970947,2.319336,2.502441,3.356933"
"-0.120728,-0.240112,-0.964600,-0.366211,3.662109,7.690429"
"-0.147461,-0.140625,-0.991089,-4.760742,5.187988,14.160155"
"-0.145386,-0.135498,-0.958374,-0.488281,4.455566,11.108397"
"-0.143188,-0.170044,-0.969116,4.394531,7.263183,9.521484"
"-0.150146,-0.118652,-0.995361,9.582520,7.385253,13.671874"
"-0.152954,-0.074219,-0.991943,1.892090,2.990722,12.451171"
"-0.148804,-0.167603,-0.937134,3.662109,3.967285,10.192870"
"-0.152588,-0.119995,-0.964844,6.652832,7.080078,15.563964"
"-0.160278,-0.046997,-0.960815,6.530761,6.408691,19.042969"
"-0.157959,-0.058838,-0.951538,0.976562,6.347656,15.441894"
"-0.151855,-0.104004,-0.958496,1.892090,7.202148,14.953612"
"-0.155518,-0.071045,-1.022217,3.723144,8.789063,16.906738"
"-0.161743,-0.132812,-0.960571,1.098633,2.380371,15.014647"
"-0.158569,-0.164062,-0.936279,8.605957,4.699707,20.141600"
"-0.171143,-0.099976,-0.945923,11.169433,9.277344,25.939939"
"-0.188110,-0.000366,-0.974976,14.221190,9.277344,23.071287"
"-0.189087,0.028564,-0.967407,13.916015,9.277344,19.104004"
"-0.183228,-0.024536,-0.998779,9.826660,8.850098,11.474608"
"-0.166016,-0.130371,-0.972412,10.742187,6.103515,9.399414"
"-0.167236,-0.130981,-0.977295,12.390136,6.835937,17.944336"
"-0.189453,-0.036987,-0.995117,6.103515,4.455566,22.277830"
"-0.199097,0.000854,-0.951538,8.911133,6.286621,19.042969"
"-0.204224,0.031006,-0.997437,8.178711,6.774902,13.549804"
"-0.202759,-0.022217,-1.015137,6.896972,5.126953,11.108397"
"-0.191772,-0.072021,-0.990479,7.934570,1.281738,11.718749"
"-0.186157,-0.013794,-0.964233,12.634276,1.953125,18.249512"
"-0.191284,0.028687,-0.981934,7.995605,3.662109,18.615723"
"-0.187622,-0.015625,-0.960937,8.056641,1.831055,12.756347"
"-0.178223,-0.066406,-0.952271,7.812500,3.662109,10.620116"
"-0.183472,-0.075073,-0.988525,10.559081,5.981445,13.793944"
"-0.190063,-0.018799,-1.006104,16.174316,1.342773,15.869140"
"-0.190674,0.010376,-0.959839,16.174316,0.671387,15.197753"
"-0.197144,0.010376,-0.978394,12.268065,3.173828,12.573241"
"-0.201538,0.032837,-0.994995,9.460449,3.967285,11.230468"
"-0.200317,0.027832,-0.998047,7.446289,2.502441,10.070800"
"-0.204712,0.032837,-0.992432,13.061522,1.403808,13.366698"
"-0.224731,0.159424,-0.989990,13.977050,0.854492,13.977050"
"-0.235596,0.192505,-0.976440,8.361816,1.586914,6.103515"
"-0.228760,0.156006,-1.011108,6.347656,4.760742,-3.112793"
"-0.212402,0.089355,-1.023682,5.798339,1.037598,-0.671387"
"-0.230591,0.159912,-1.020508,3.479004,0.122070,1.647949"
"-0.228516,0.163818,-0.996582,0.366211,-1.281738,-2.563476"
"-0.221680,0.124756,-1.001709,3.906250,-0.366211,-7.446289"
"-0.222290,0.150879,-0.996338,-3.417969,-2.502441,-9.582520"
"-0.233154,0.175659,-0.991577,-16.540527,-4.943848,-19.775391"
"-0.199585,0.069214,-0.970703,-20.202635,-5.676269,-31.311033"
"-0.175415,-0.062256,-0.952148,-22.277830,-2.502441,-22.399900"
"-0.196289,0.028076,-0.988647,-19.897461,-0.427246,-16.418457"
"-0.211182,0.118774,-0.927124,-14.770507,-1.220703,-15.991210"
"-0.190308,0.076050,-0.917358,-9.887695,4.699707,-26.489256"
"-0.183960,0.014282,-0.985718,-9.277344,7.019042,-32.775879"
"-0.178589,-0.080933,-1.005615,-17.272949,-4.760742,-28.320311"
"-0.173096,-0.172852,-0.990112,-16.418457,-5.554199,-15.686034"
"-0.176758,-0.070557,-0.952759,-13.305663,-7.263183,-9.216309"
"-0.192749,0.053833,-0.869263,-1.220703,-3.112793,-9.582520"
"-0.184692,-0.044800,-0.992798,16.784668,9.704590,-21.484373"
"-0.193726,-0.044678,-0.983276,15.686034,2.136230,-19.958496"
"-0.192627,-0.140625,-0.955078,-9.338379,-3.784179,-23.437498"
"-0.181519,-0.221069,-1.002441,-23.681639,-2.990722,-17.639160"
"-0.186890,-0.151123,-0.962280,-15.258788,-6.896972,-0.244141"
"-0.234131,0.094727,-0.958008,-10.437011,-3.723144,0.488281"
"-0.222168,0.055664,-0.998169,-8.178711,0.000000,-17.211914"
"-0.195312,-0.217163,-1.033203,-11.535644,-2.563476,-30.944822"
"-0.188599,-0.262329,-1.028931,-8.605957,-7.873535,-16.601562"
"-0.191040,-0.159668,-1.032471,-11.169433,-11.901855,-5.126953"
"-0.178223,-0.110718,-0.979614,-4.211426,-15.624999,-2.441406"
"-0.177490,-0.026733,-0.927002,-1.342773,-13.671874,-3.784179"
"-0.169312,0.000488,-0.926392,-2.990722,-9.643555,-9.521484"
"-0.171143,-0.065918,-0.985718,-10.803222,-7.202148,-17.211914"
"-0.153442,-0.229492,-1.030640,-15.747069,-9.582520,-23.254393"
"-0.134766,-0.310547,-1.014526,-14.282226,-14.343261,-16.174316"
"-0.147461,-0.260376,-0.982910,-13.793944,-14.770507,0.488281"
"-0.158813,-0.100220,-0.924072,-7.202148,-6.408691,-4.516602"
"-0.144775,-0.105225,-0.984619,-4.455566,-3.112793,-11.596679"
"-0.129395,-0.141846,-0.973633,-6.774902,-5.371093,-12.695312"
"-0.113159,-0.208862,-0.942993,-10.314940,-6.103515,-13.610839"
"-0.093018,-0.323608,-0.966064,-6.469726,-2.746582,-10.803222"
"-0.102539,-0.200684,-0.954224,-3.295898,-2.319336,2.990722"
"-0.111694,-0.134155,-0.942749,-1.098633,0.183105,2.441406"
"-0.120361,-0.169678,-0.971313,-1.342773,2.868652,-2.319336"
""
"-0.198364,-0.007080,-1.000122,-1.464844,2.441406,11.596679"
"-0.199341,0.001831,-0.957275,-0.732422,0.854492,12.634276"
"-0.210449,0.025146,-0.976562,9.887695,4.455566,12.268065"
"-0.212158,0.057495,-1.016602,15.380858,3.967285,10.742187"
"-0.199829,0.061401,-0.943726,12.023925,-0.061035,7.873535"
"-0.205933,0.057861,-0.996460,3.540039,3.967285,6.164550"
"-0.217407,0.093384,-1.022583,-4.882812,1.464844,5.310058"
"-0.221924,0.105103,-0.965576,-0.915527,1.037598,0.854492"
"-0.217651,0.074463,-1.001587,2.319336,3.112793,-1.281738"
"-0.227295,0.080688,-1.018188,2.014160,1.586914,-1.220703"
"-0.228638,0.092896,-1.005493,0.061035,-0.793457,-2.319336"
"-0.233032,0.126343,-1.005737,-0.793457,-1.342773,-3.845215"
"-0.239624,0.150635,-0.992065,-5.310058,-1.708984,-9.643555"
"-0.210571,0.094482,-0.973511,-14.160155,0.305176,-16.967773"
"-0.218262,0.019531,-1.021729,-17.150879,0.427246,-15.869140"
"-0.225220,0.025391,-1.022217,-12.145995,-3.112793,-13.366698"
"-0.216309,0.025269,-1.004150,-11.840819,-7.690429,-14.770507"
"-0.219238,0.036255,-0.956909,-12.878417,-10.803222,-17.395020"
"-0.211426,0.049316,-0.932251,-7.934570,-5.859375,-19.531250"
"-0.201782,0.042114,-0.961792,-16.967773,-1.037598,-25.573729"
"-0.171021,-0.110596,-0.970703,-18.981934,-2.075195,-28.076170"
"-0.179443,-0.089111,-0.953369,-22.277830,-3.723144,-21.057127"
"-0.178833,-0.061035,-0.977661,-19.897461,-4.760742,-17.150879"
"-0.176758,-0.047485,-0.904907,-15.319823,-7.507324,-18.432617"
"-0.184326,-0.078857,-0.965576,-6.469726,0.366211,-20.690916"
"-0.187866,-0.084717,-0.980347,-3.540039,-0.915527,-20.568846"
"-0.182617,-0.160156,-0.954834,-5.554199,-2.502441,-22.949217"
"-0.178589,-0.218384,-0.998657,-6.103515,-1.708984,-13.549804"
"-0.191895,-0.116455,-1.000244,-3.173828,-6.896972,-7.263183"
"-0.214478,-0.005981,-0.971313,-4.638672,-6.652832,-7.507324"
"-0.206543,0.046753,-0.953003,5.432128,-2.990722,-14.526366"
"-0.187378,-0.062744,-0.981567,13.854980,-0.366211,-23.864744"
"-0.167725,-0.219849,-0.985352,0.793457,-3.967285,-24.719236"
"-0.157959,-0.272339,-0.977905,7.629394,-5.798339,-12.817382"
"-0.180786,-0.092651,-0.995361,8.605957,-8.117676,1.342773"
"-0.194092,0.088989,-0.959351,0.732422,-10.986327,-0.488281"
"-0.194946,0.117920,-0.906128,-9.887695,-9.765625,-13.183593"
"-0.190674,-0.039673,-0.991699,-16.296387,-2.746582,-30.151365"
"-0.174683,-0.175293,-0.965454,-14.648437,-4.638672,-36.071777"
"-0.154785,-0.292358,-1.000732,-14.160155,-3.051758,-22.644041"
"-0.149780,-0.289673,-1.018433,-7.812500,-10.620116,-5.737304"
"-0.171875,-0.043701,-0.943115,-1.525879,-7.385253,-3.173828"
"-0.180298,-0.039063,-0.936768,-2.807617,-5.432128,-13.549804"
"-0.159912,-0.223145,-1.022949,-9.155273,-1.403808,-25.146482"
"-0.130371,-0.291016,-0.967896,-13.305663,-7.263183,-17.761230"
"-0.109375,-0.310547,-0.980957,-11.352538,-5.432128,-9.521484"
"-0.110718,-0.308716,-0.994019,-5.126953,-6.835937,-1.037598"
"-0.123535,-0.188354,-0.891968,7.141113,-2.563476,5.004883"
"-0.147705,-0.080078,-0.955444,7.385253,3.784179,-2.990722"
"-0.140991,-0.156006,-0.986450,-2.014160,-0.244141,-8.178711"
"-0.112671,-0.309448,-0.969727,-3.784179,-0.671387,-6.591796"
"-0.125122,-0.228271,-0.964111,-0.915527,0.610352,6.286621"
"-0.131348,-0.159302,-0.949951,0.244141,1.464844,8.666992"
"-0.125244,-0.166748,-0.930786,2.624511,3.967285,6.347656"
"-0.122192,-0.177734,-0.943237,2.014160,7.263183,6.164550"
"-0.126343,-0.258057,-0.980591,3.723144,6.774902,7.080078"
"-0.123535,-0.277222,-0.968750,5.676269,5.493164,11.657714"
"-0.146240,-0.198608,-0.936157,4.577637,5.187988,19.653320"
"-0.157593,-0.152344,-0.966431,8.850098,8.972168,20.874022"
"-0.164551,-0.112915,-0.940674,10.253905,8.300781,20.446775"
"-0.168579,-0.149658,-1.001099,9.521484,11.291503,16.967773"
"-0.178589,-0.132690,-1.000488,10.925292,7.263183,19.714355"
"-0.180908,-0.119263,-0.938477,13.305663,6.652832,18.676758"
"-0.177734,-0.173218,-0.986084,17.883301,11.413573,17.883301"
"-0.202148,-0.039063,-0.990112,16.662598,8.361816,26.306150"
"-0.203247,-0.000366,-0.976318,11.840819,5.920410,21.667479"
"-0.192749,-0.052002,-0.952148,10.864257,6.530761,16.479492"
"-0.201294,-0.063354,-0.952148,9.887695,7.690429,17.028809"
"-0.208984,-0.039307,-1.027710,8.605957,10.192870,18.371582"
"-0.194458,-0.113770,-0.979980,12.084960,4.333496,16.845703"
"-0.207397,-0.014038,-0.985107,10.620116,2.990722,25.268553"
"-0.216675,0.029663,-0.973267,7.141113,1.647949,23.071287"
"-0.216553,0.048706,-0.957764,5.981445,1.098633,19.775391"
"-0.207642,0.047485,-0.980469,-2.563476,0.976562,16.967773"
"-0.207275,0.044678,-0.973145,-8.972168,-2.075195,14.160155"
"-0.197632,-0.000244,-0.919922,-7.568359,-1.342773,9.521484"
"-0.194092,-0.033325,-0.991943,1.464844,6.347656,8.666992"
"-0.198120,-0.049683,-1.005127,-1.464844,3.112793,10.559081"
"-0.209229,-0.055786,-0.977051,0.976562,3.540039,17.028809"
"-0.224609,0.079834,-1.009766,-0.183105,2.319336,16.967773"
"-0.220093,0.080811,-0.963745,-2.197266,0.366211,11.047362"
"-0.219482,0.019531,-0.987671,-1.464844,2.746582,3.662109"
"-0.216553,0.003296,-1.004517,-1.220703,2.197266,2.990722"
"-0.207886,-0.047852,-0.989258,-3.540039,0.671387,3.051758"
"-0.206543,-0.064209,-1.004395,5.065917,1.586914,7.629394"
"-0.219116,0.046143,-1.011963,7.873535,0.366211,10.681151"
"-0.216553,0.126465,-0.974976,3.234863,-2.136230,6.958007"
"-0.200562,0.002441,-0.953369,-3.723144,-0.732422,-3.417969"
"-0.203613,-0.015503,-0.996948,-0.549316,2.441406,-1.281738"
"-0.209595,0.011719,-1.016724,2.075195,0.427246,1.770019"
"-0.219727,0.053711,-1.005371,2.807617,-3.051758,0.732422"
"-0.225464,0.069458,-0.995239,5.554199,-1.525879,-3.234863"
"-0.220825,0.034180,-1.012939,5.981445,-1.770019,-5.432128"
"-0.216309,0.032837,-1.011719,-4.150391,-4.333496,-6.347656"
"-0.204834,0.015625,-0.989624,-11.535644,-6.713867,-7.934570"
"-0.196533,-0.007813,-0.972534,-5.432128,-6.591796,-8.239746"
"-0.195312,0.006592,-0.974487,-4.272461,-5.737304,-7.629394"
"-0.209595,0.050659,-0.956909,-4.272461,-6.591796,-9.582520"
"-0.200684,0.034180,-0.995850,-0.915527,-3.051758,-15.624999"
"-0.198486,-0.049072,-1.023315,-8.666992,-4.882812,-19.653320"
"-0.192017,-0.103271,-0.989868,-15.258788,-10.131835,-18.066406"
"-0.183350,-0.123779,-0.964478,-13.244628,-9.582520,-13.122558"
"-0.183960,-0.080322,-0.989624,-5.859375,-6.774902,-6.225585"
"-0.195435,0.055176,-0.946289,1.220703,-8.544922,-11.047362"
"-0.188232,0.035278,-0.931519,-5.310058,-2.258301,-20.874022"
"-0.176392,-0.051758,-1.020386,-12.145995,-3.540039,-23.742674"
"-0.153442,-0.149536,-0.988892,-16.601562,-10.192870,-20.385740"
"-0.150635,-0.115845,-0.961548,-16.845703,-12.145995,-9.887695"
"-0.161865,-0.064087,-0.937866,-17.761230,-10.314940,-13.061522"
"-0.167114,-0.105469,-0.950684,-14.465331,-8.117676,-14.099120"
"-0.173340,-0.066772,-0.999512,-6.591796,-3.906250,-12.939452"
"-0.174927,-0.063110,-1.012695,-7.141113,-6.896972,-13.244628"
"-0.167114,-0.089600,-0.961426,-11.901855,-11.596679,-13.916015"
"-0.152954,-0.187622,-0.925293,-14.038085,-10.864257,-17.639160"
"-0.149902,-0.204956,-0.938232,-7.019042,-5.371093,-14.160155"
"-0.152344,-0.160400,-1.001709,-3.051758,-5.432128,-10.375976"
"-0.159912,-0.103271,-0.999634,-3.234863,-7.507324,-8.117676"
"-0.155396,-0.051270,-0.956543,-6.530761,-10.253905,-9.521484"
"-0.121338,-0.205811,-0.983887,-8.056641,-8.300781,-20.568846"
"-0.108398,-0.290405,-0.980835,2.929687,-9.155273,-17.456055"
"-0.111938,-0.148682,-0.930664,8.422852,-4.821777,-3.417969"
"-0.122070,-0.135986,-0.964355,0.671387,-2.319336,-7.324218"
"-0.116699,-0.192139,-0.981689,-2.441406,-5.310058,-9.765625"
"-0.119141,-0.163208,-0.949951,-1.770019,-2.868652,-8.544922"
"-0.119873,-0.154541,-0.989746,-0.915527,-2.258301,-10.375976"
"-0.090210,-0.283081,-0.934326,5.676269,-2.502441,-12.756347"
"-0.102295,-0.177124,-0.952515,6.713867,1.770019,-1.159668"
"-0.113647,-0.103760,-0.960205,2.075195,1.770019,-0.732422"
""
"-0.209961,-0.113647,-0.985229,18.981934,8.056641,20.935057"
"-0.233032,0.066895,-0.972168,27.038572,8.239746,26.489256"
"-0.230469,0.076782,-0.955688,20.996092,7.751464,15.991210"
"-0.221558,0.047485,-0.996582,16.357422,8.666992,12.451171"
"-0.217529,0.024170,-1.020874,8.300781,6.469726,8.789063"
"-0.219727,0.000366,-0.975464,11.901855,2.563476,8.117676"
"-0.221069,-0.020996,-0.960693,15.075683,4.638672,9.460449"
"-0.236206,0.011597,-1.019165,15.258788,5.981445,12.329101"
"-0.251831,0.085327,-1.011597,12.817382,3.540039,11.535644"
"-0.247070,0.092529,-1.002319,6.774902,1.281738,6.347656"
"-0.235596,0.071899,-1.001465,8.605957,1.342773,2.380371"
"-0.220825,0.076782,-0.982666,11.413573,1.342773,3.173828"
"-0.227783,0.088013,-0.986694,10.742187,1.220703,2.319336"
"-0.246460,0.111572,-1.008789,9.155273,1.708984,0.915527"
"-0.254150,0.127808,-1.018677,2.685547,-0.366211,-3.356933"
"-0.246582,0.105347,-1.019653,-0.915527,-2.868652,-7.629394"
"-0.233398,0.118164,-0.979492,-4.882812,-4.150391,-11.047362"
"-0.223022,0.027222,-0.999390,-8.300781,-3.784179,-14.221190"
"-0.207275,-0.047974,-0.977783,-7.873535,-5.004883,-12.634276"
"-0.202637,0.003540,-0.968872,-6.835937,-5.310058,-7.995605"
"-0.194580,0.014404,-0.934082,0.061035,-4.272461,-8.728027"
"-0.198486,0.063599,-0.954102,-0.061035,-1.342773,-8.605957"
"-0.200562,0.068848,-0.906250,-6.652832,-2.380371,-12.084960"
"-0.214600,0.030396,-0.996338,-18.188477,1.953125,-17.028809"
"-0.210449,-0.081421,-0.963135,-18.859863,-4.394531,-22.155760"
"-0.179077,-0.232544,-0.926147,-12.268065,-3.906250,-21.484373"
"-0.173462,-0.247559,-0.953125,3.356933,4.516602,-7.507324"
"-0.200073,-0.060425,-0.989624,10.314940,2.990722,3.784179"
"-0.229248,0.147705,-0.951538,-4.699707,2.868652,-9.277344"
"-0.218140,-0.003906,-0.990112,-13.732909,1.953125,-21.484373"
"-0.194580,-0.246582,-0.974243,-16.845703,-2.746582,-27.282713"
"-0.192993,-0.269043,-1.009521,-4.638672,-2.563476,-9.399414"
"-0.213989,-0.000854,-0.941772,5.493164,-7.507324,10.314940"
"-0.210327,0.084839,-0.857056,7.263183,-4.638672,2.380371"
"-0.191406,0.080811,-0.900635,-4.638672,6.347656,-17.395020"
"-0.189575,-0.084839,-0.992920,-12.634276,3.173828,-22.094725"
"-0.197021,-0.145020,-1.024902,-13.732909,0.976562,-17.700195"
"-0.211182,-0.180542,-1.077271,-6.042480,-3.295898,-8.789063"
"-0.231934,-0.042358,-0.988770,5.310058,-11.291503,0.549316"
"-0.240234,-0.009644,-0.939087,-1.586914,-8.544922,-7.568359"
"-0.219238,-0.125366,-1.006470,-8.544922,-2.319336,-18.798828"
"-0.205078,-0.171143,-1.015137,-9.338379,-5.310058,-15.441894"
"-0.186890,-0.161255,-0.999512,-7.141113,-9.460449,-8.728027"
"-0.172974,-0.152710,-0.953613,-8.300781,-9.765625,-8.544922"
"-0.162109,-0.144043,-0.914429,-7.385253,-6.042480,-8.605957"
"-0.161621,-0.149170,-0.948608,-5.676269,-3.051758,-9.521484"
"-0.162231,-0.198364,-0.960083,-9.033203,-3.356933,-9.155273"
"-0.176636,-0.158813,-0.970093,-11.962890,-3.845215,-4.028320"
"-0.166748,-0.182861,-0.968384,-10.803222,-4.394531,-4.821777"
"-0.149536,-0.215576,-0.933350,-5.004883,-3.662109,-3.051758"
"-0.149414,-0.195557,-0.972290,2.258301,0.183105,2.136230"
"-0.158691,-0.175781,-0.982178,1.770019,-2.258301,2.258301"
"-0.144531,-0.206177,-0.926025,-3.173828,-4.760742,2.075195"
"-0.155029,-0.207275,-0.926025,-4.150391,0.427246,5.004883"
"-0.159180,-0.173218,-0.953125,2.319336,5.065917,7.446289"
"-0.156738,-0.152588,-0.939575,6.774902,6.347656,9.155273"
"-0.181152,-0.102783,-0.983398,4.516602,8.605957,6.408691"
"-0.186401,-0.168579,-1.001221,0.427246,3.173828,2.807617"
"-0.176880,-0.240234,-0.974243,-0.610352,2.624511,5.432128"
"-0.187744,-0.146484,-0.984985,2.807617,3.112793,15.319823"
"-0.190918,-0.101196,-0.968384,-1.220703,2.014160,15.869140"
"-0.192627,-0.113403,-0.953247,1.098633,3.723144,13.977050"
"-0.198120,-0.064331,-0.977783,3.967285,4.638672,11.352538"
"-0.179321,-0.126709,-0.927734,-0.061035,4.943848,5.310058"
"-0.174072,-0.234985,-1.002075,2.136230,7.263183,7.385253"
"-0.189941,-0.144531,-0.970703,6.225585,2.807617,20.629881"
"-0.203979,-0.026123,-0.932251,-1.037598,2.075195,23.559568"
"-0.197632,-0.058960,-0.923950,6.286621,6.347656,13.977050"
"-0.181641,-0.154053,-0.966919,15.808105,8.361816,16.845703"
"-0.191772,-0.085937,-0.979248,13.916015,6.713867,20.935057"
"-0.203735,-0.049072,-0.953247,11.596679,3.906250,22.338865"
"-0.207153,-0.034668,-0.944824,10.131835,4.821777,20.202635"
"-0.213013,-0.062988,-0.977783,10.559081,5.798339,18.737793"
"-0.210693,-0.052734,-0.965820,16.357422,5.126953,19.775391"
"-0.210449,-0.052246,-0.957520,18.493652,5.371093,19.897461"
"-0.208496,-0.058350,-0.954102,23.925779,6.530761,21.484373"
"-0.216797,0.006958,-0.952637,24.536131,7.568359,23.803709"
"-0.235107,0.080078,-0.982056,16.357422,8.117676,22.644041"
"-0.233765,0.052612,-0.972046,12.268065,5.981445,16.479492"
"-0.237061,0.080566,-0.957520,12.939452,7.385253,15.075683"
"-0.240601,0.080688,-0.997803,13.732909,9.338379,10.498046"
"-0.236328,0.028809,-1.028809,13.793944,3.356933,10.437011"
"-0.248901,0.085937,-0.991089,11.901855,2.014160,11.596679"
"-0.247070,0.084473,-0.997559,9.155273,2.014160,8.178711"
"-0.241333,0.083008,-0.993042,6.469726,0.854492,5.920410"
"-0.227295,0.053345,-0.948730,5.493164,1.464844,3.234863"
"-0.231567,0.030396,-0.986450,6.042480,3.417969,3.295898"
"-0.234619,0.096680,-1.007202,7.385253,2.746582,5.065917"
"-0.239136,0.098877,-0.995361,5.615234,0.244141,1.403808"
"-0.241333,0.091797,-0.974976,3.295898,-0.549316,-1.464844"
"-0.243896,0.087891,-0.986572,-2.197266,-0.305176,-3.234863"
"-0.248535,0.090576,-1.004028,-6.103515,-2.868652,-3.723144"
"-0.243652,0.085327,-0.996948,-7.690429,-4.760742,-6.286621"
"-0.235474,0.076294,-0.979736,-5.676269,-2.502441,-8.239746"
"-0.222656,0.060791,-0.980103,-4.760742,-2.136230,-9.704590"
"-0.225952,0.059448,-0.983276,-7.507324,-2.258301,-10.131835"
"-0.231323,0.025391,-0.977051,-12.573241,-5.004883,-12.817382"
"-0.237183,0.015625,-0.994507,-12.878417,-5.065917,-13.183593"
"-0.244507,0.051514,-0.999878,-13.671874,-6.591796,-13.122558"
"-0.230469,0.043213,-0.971924,-12.939452,-7.080078,-21.118162"
"-0.198486,-0.064575,-0.958496,-14.221190,-5.554199,-22.338865"
"-0.193604,-0.104492,-0.962158,-15.991210,-4.882812,-13.000487"
"-0.210571,-0.014282,-0.989868,-14.160155,-7.873535,-7.568359"
"-0.215088,0.098755,-0.923096,-14.465331,-9.582520,-9.887695"
"-0.198120,-0.088745,-0.945435,-16.906738,-5.432128,-25.512693"
"-0.184570,-0.214355,-0.993530,-17.272949,-4.455566,-25.207518"
"-0.185913,-0.168579,-0.977295,-11.779784,-7.446289,-13.732909"
"-0.196777,-0.074585,-0.980713,-7.019042,-7.202148,-5.371093"
"-0.208618,0.049072,-0.958008,-10.131835,-7.873535,-5.310058"
"-0.203247,0.023315,-0.943481,-11.840819,-6.958007,-18.249512"
"-0.191895,-0.118408,-0.960815,-8.361816,-3.479004,-20.507811"
"-0.191284,-0.137573,-1.002563,-3.967285,-3.662109,-16.296387"
"-0.179687,-0.072021,-0.974854,-3.051758,-7.446289,-8.728027"
"-0.188110,0.009399,-0.957031,-9.765625,-7.080078,-6.958007"
"-0.190674,0.023804,-0.969238,-10.925292,-6.652832,-13.427733"
"-0.177246,-0.009644,-0.937622,-14.892577,-6.713867,-19.470215"
"-0.171875,-0.105469,-0.961914,-19.714355,-6.469726,-22.094725"
"-0.171997,-0.171875,-0.957520,-13.305663,-5.798339,-16.662598"
"-0.179810,-0.138062,-0.995728,-10.253905,-5.859375,-12.695312"
"-0.194336,-0.119141,-0.984375,-9.399414,-6.896972,-10.986327"
"-0.203735,-0.046143,-0.995117,-12.939452,-6.713867,-11.535644"
"-0.174927,-0.116943,-0.955566,-12.390136,-6.835937,-20.324705"
"-0.157227,-0.199219,-0.991211,-7.019042,-3.540039,-21.362303"
"-0.155273,-0.187134,-0.975586,-8.544922,-6.713867,-13.671874"
"-0.159790,-0.115601,-0.958130,-6.591796,-5.981445,-10.253905"
"-0.168823,-0.105835,-0.960083,-3.234863,-7.019042,-9.155273"
"-0.182739,-0.012451,-0.938965,-7.385253,-4.821777,-15.502929"
"-0.150879,-0.179932,-0.960205,-6.530761,-2.929687,-21.972654"
""
"-0.173706,-0.168091,-0.958862,2.929687,3.601074,20.446775"
"-0.182251,-0.114502,-0.952515,2.807617,4.394531,21.118162"
"-0.180908,-0.093262,-0.933716,4.028320,5.371093,20.751951"
"-0.187256,-0.109375,-0.982666,9.582520,9.399414,18.920898"
"-0.192139,-0.133789,-0.988647,12.451171,7.263183,19.897461"
"-0.195435,-0.102417,-0.968262,17.272949,4.577637,23.620604"
"-0.193970,-0.115479,-0.962769,23.254393,5.920410,23.010252"
"-0.199097,-0.103638,-0.955322,21.423338,5.493164,28.137205"
"-0.206299,-0.018677,-0.940552,19.226074,6.652832,27.893064"
"-0.213135,-0.018921,-0.971436,20.751951,10.498046,23.010252"
"-0.212891,-0.033569,-0.994019,22.338865,9.338379,20.019531"
"-0.205322,-0.061768,-0.947754,19.958496,8.728027,21.789549"
"-0.206787,-0.037598,-0.986206,20.629881,10.925292,22.888182"
"-0.237793,0.092529,-1.007935,19.653320,9.704590,26.306150"
"-0.252197,0.115967,-0.998657,14.587401,5.554199,20.202635"
"-0.248657,0.096069,-0.971924,15.136718,4.943848,14.892577"
"-0.252319,0.125977,-0.974854,11.535644,8.544922,13.549804"
"-0.253906,0.165771,-1.047852,6.347656,4.516602,8.605957"
"-0.246948,0.149170,-1.001831,5.432128,1.953125,5.493164"
"-0.246216,0.117310,-1.000000,6.713867,1.892090,1.953125"
"-0.251343,0.164795,-1.000122,5.798339,1.342773,1.831055"
"-0.250854,0.150391,-1.010498,2.319336,1.342773,-5.004883"
"-0.238892,0.067627,-1.027100,1.037598,0.000000,-7.019042"
"-0.226196,0.064209,-0.951416,-3.601074,-4.638672,-6.469726"
"-0.220947,0.044312,-0.968994,-7.141113,-0.610352,-8.911133"
"-0.217285,0.034302,-0.989380,-7.812500,-0.488281,-10.620116"
"-0.214111,0.011353,-0.979614,-8.117676,-2.319336,-12.634276"
"-0.215088,-0.044434,-1.001953,-7.324218,-3.234863,-9.033203"
"-0.226929,0.039185,-0.999146,-8.728027,-6.530761,-7.446289"
"-0.220093,0.067993,-0.941895,-8.422852,-6.713867,-10.620116"
"-0.214478,0.033691,-0.966675,-8.911133,-2.685547,-16.418457"
"-0.207886,-0.030151,-0.986694,-12.817382,-3.112793,-19.165039"
"-0.190674,-0.025024,-0.931763,-12.512206,-4.821777,-14.953612"
"-0.187134,-0.024170,-0.947998,-9.338379,-0.854492,-11.840819"
"-0.218994,0.064941,-0.959106,-7.141113,-1.892090,-10.375976"
"-0.224976,0.082397,-0.975708,-16.296387,-1.464844,-17.028809"
"-0.234741,0.028687,-0.978882,-20.263670,-3.784179,-22.521971"
"-0.237183,-0.023193,-1.010620,-22.460936,-4.821777,-27.282713"
"-0.218384,-0.154907,-1.004395,-23.315428,-7.751464,-28.320311"
"-0.196045,-0.176270,-0.959961,-15.869140,-9.338379,-21.301268"
"-0.193359,-0.098999,-0.963989,-5.798339,-6.225585,-12.145995"
"-0.205566,-0.002686,-0.967407,-14.953612,-7.019042,-10.620116"
"-0.216675,0.012329,-0.949341,-19.592285,-7.873535,-24.414061"
"-0.191528,-0.163330,-0.950928,-19.897461,-5.920410,-30.212400"
"-0.170898,-0.277832,-1.017090,-19.836426,-6.713867,-25.451658"
"-0.174316,-0.171143,-0.971436,-15.441894,-13.183593,-10.742187"
"-0.185425,-0.062622,-0.956543,-9.399414,-12.145995,-4.943848"
"-0.204712,0.076904,-0.913696,-14.526366,-9.765625,-8.239746"
"-0.195679,-0.016846,-0.940918,-16.113281,-3.234863,-29.724119"
"-0.166748,-0.272949,-0.991455,-15.075683,-2.624511,-31.555174"
"-0.163940,-0.249146,-1.008911,-10.314940,-6.469726,-17.517090"
"-0.173828,-0.112305,-0.969116,-7.385253,-11.535644,-6.408691"
"-0.184326,-0.038330,-0.957520,-5.676269,-10.559081,-6.469726"
"-0.193115,0.044678,-0.949951,-7.751464,-7.690429,-10.986327"
"-0.186523,-0.015625,-0.974121,-13.488769,-5.615234,-25.329588"
"-0.157837,-0.223267,-0.970093,-14.404296,-7.812500,-24.108885"
"-0.152832,-0.227661,-0.994751,-15.014647,-10.498046,-15.563964"
"-0.148926,-0.163330,-0.958984,-15.014647,-11.718749,-13.671874"
"-0.140259,-0.160400,-0.920654,-10.253905,-10.131835,-14.953612"
"-0.145020,-0.201416,-0.954590,-5.676269,-3.601074,-16.845703"
"-0.152222,-0.189819,-0.992432,-10.803222,-3.356933,-15.075683"
"-0.144897,-0.212769,-0.972656,-13.671874,-7.385253,-17.761230"
"-0.112061,-0.344849,-0.949951,-11.962890,-7.141113,-15.136718"
"-0.108276,-0.347046,-0.943359,-7.690429,-5.554199,-2.380371"
"-0.118286,-0.231079,-0.932129,-4.577637,-5.371093,0.122070"
"-0.124878,-0.187622,-0.910889,2.746582,-1.770019,-0.183105"
"-0.136841,-0.189697,-0.957520,4.699707,4.028320,-1.281738"
"-0.144653,-0.209229,-0.993164,1.342773,3.906250,-1.281738"
"-0.148437,-0.227051,-0.997925,-3.662109,0.061035,-0.061035"
"-0.144775,-0.212524,-0.978394,-3.967285,-1.892090,2.563476"
"-0.133179,-0.201416,-0.952271,-0.671387,-1.647949,3.601074"
"-0.140625,-0.142334,-0.941895,2.685547,1.037598,6.652832"
"-0.137939,-0.190430,-0.969116,2.319336,3.540039,2.258301"
"-0.134033,-0.247070,-0.959229,3.051758,2.441406,2.014160"
"-0.137329,-0.240356,-0.963135,0.061035,2.014160,6.652832"
"-0.141724,-0.213135,-0.958984,-0.366211,1.892090,8.789063"
"-0.152954,-0.160156,-0.948486,-3.540039,2.868652,7.934570"
"-0.154907,-0.207764,-0.948364,-11.230468,4.821777,1.464844"
"-0.139282,-0.248047,-0.966797,-5.126953,7.751464,0.305176"
"-0.133545,-0.278076,-0.983154,-0.549316,6.958007,4.455566"
"-0.141602,-0.282349,-0.956177,2.319336,5.615234,8.728027"
"-0.151367,-0.212891,-0.972412,6.225585,7.324218,15.624999"
"-0.156250,-0.168213,-0.949829,12.390136,6.286621,17.639160"
"-0.158081,-0.143311,-0.945679,11.840819,6.408691,16.113281"
"-0.156982,-0.156982,-0.927612,6.347656,7.446289,11.840819"
"-0.159302,-0.203003,-0.958252,3.112793,8.239746,12.573241"
"-0.148926,-0.249390,-0.919678,14.221190,8.666992,19.775391"
"-0.161865,-0.165649,-0.960937,19.653320,11.535644,25.207518"
"-0.175659,-0.072144,-0.946899,20.141600,9.399414,28.076170"
"-0.177368,-0.062500,-0.926514,15.014647,10.375976,21.362303"
"-0.180054,-0.105713,-0.954346,12.939452,13.977050,17.028809"
"-0.190918,-0.142578,-0.994995,16.174316,13.366698,16.967773"
"-0.203369,-0.127441,-1.004639,21.362303,10.925292,20.019531"
"-0.212158,-0.111694,-0.984863,18.981934,7.446289,22.216795"
"-0.214233,-0.108887,-0.965698,19.409180,7.507324,23.986814"
"-0.224609,-0.049438,-0.973755,17.395020,8.300781,23.620604"
"-0.232544,-0.005005,-0.996826,13.305663,6.896972,19.897461"
"-0.228271,-0.011597,-1.007568,11.718749,3.967285,13.793944"
"-0.215820,-0.070679,-1.001099,13.000487,4.150391,13.000487"
"-0.213257,-0.063965,-0.995483,13.793944,2.807617,15.991210"
"-0.213135,-0.033203,-0.982300,21.057127,2.624511,18.981934"
"-0.213379,0.016602,-0.983765,24.291990,2.624511,19.958496"
"-0.209106,0.062622,-0.946289,21.057127,2.258301,17.089844"
"-0.199097,0.026001,-0.975830,12.817382,5.126953,9.948730"
"-0.196167,0.012085,-0.981934,8.239746,4.211426,7.080078"
"-0.193481,-0.033691,-0.969238,10.253905,4.028320,8.117676"
"-0.200195,-0.022217,-0.960693,15.686034,4.272461,10.986327"
"-0.215820,0.067017,-0.984619,26.550291,6.103515,14.404296"
"-0.225098,0.095947,-0.997192,21.179197,5.615234,9.399414"
"-0.227295,0.085571,-1.000488,8.911133,2.746582,3.051758"
"-0.222778,0.045654,-0.985840,4.760742,1.464844,1.892090"
"-0.230103,0.070068,-1.002441,-1.403808,1.586914,1.708984"
"-0.227661,0.071045,-0.998047,-0.732422,0.732422,-0.427246"
"-0.225586,0.090210,-1.001831,1.342773,0.671387,-0.732422"
"-0.232056,0.115479,-0.973022,4.394531,0.061035,-1.708984"
"-0.238525,0.134399,-0.980957,1.342773,1.892090,-6.042480"
"-0.235474,0.098022,-1.009033,-1.464844,-1.525879,-13.488769"
"-0.218384,0.051514,-0.979004,-5.432128,-3.723144,-14.953612"
"-0.216553,0.015503,-0.987915,-16.113281,-3.601074,-16.174316"
"-0.222778,-0.018311,-1.003784,-20.568846,-4.211426,-15.747069"
"-0.217529,-0.018433,-0.974365,-17.272949,-6.591796,-13.610839"
"-0.218018,0.013794,-0.966187,-9.643555,-5.981445,-12.756347"
"-0.217163,0.039307,-0.964111,-7.324218,-3.417969,-18.554687"
"-0.205811,0.000610,-1.010376,-14.160155,-7.385253,-21.850584"
"-0.184937,-0.087524,-0.949341,-15.686034,-10.131835,-22.949217"
"-0.172974,-0.104248,-0.928955,-12.023925,-7.202148,-18.005371"
"-0.189941,0.020508,-0.970703,-8.300781,-3.356933,-11.840819"
"-0.191895,0.014893,-0.955444,-8.483887,-5.004883,-19.836426"
""
"-0.158081,-0.242065,-0.954224,3.601074,1.953125,8.483887"
"-0.169556,-0.203979,-0.957764,10.559081,6.958007,13.916015"
"-0.174072,-0.168213,-1.000000,10.803222,6.835937,14.526366"
"-0.164307,-0.136108,-0.948242,7.202148,2.197266,15.686034"
"-0.168335,-0.118774,-0.929443,5.554199,3.784179,15.808105"
"-0.176880,-0.128052,-0.961548,1.037598,5.798339,12.878417"
"-0.171265,-0.168823,-0.965210,-2.014160,3.112793,13.916015"
"-0.172485,-0.154175,-0.922119,2.746582,4.272461,16.662598"
"-0.182739,-0.085571,-0.984009,8.605957,9.094238,20.996092"
"-0.186401,-0.059204,-0.897461,11.535644,6.408691,21.057127"
"-0.198975,-0.006836,-0.932373,10.192870,13.916015,19.348145"
"-0.208252,-0.057129,-1.019287,11.291503,9.643555,12.878417"
"-0.198853,-0.152222,-0.981934,16.784668,6.530761,16.845703"
"-0.202026,-0.115112,-0.966919,16.967773,6.286621,21.362303"
"-0.209473,-0.034790,-0.969482,16.479492,6.347656,25.878904"
"-0.205933,0.001587,-0.962646,8.972168,5.798339,23.010252"
"-0.202393,-0.012329,-0.966919,1.831055,5.554199,17.028809"
"-0.204834,-0.047119,-0.983276,-0.305176,4.333496,14.953612"
"-0.201416,-0.072510,-0.953125,-3.295898,1.831055,11.779784"
"-0.203857,-0.145386,-0.952271,7.934570,4.882812,17.089844"
"-0.213623,-0.080933,-0.972290,13.610839,5.615234,21.972654"
"-0.218994,-0.053467,-0.968872,17.211914,6.164550,23.559568"
"-0.218872,-0.041870,-0.969238,17.395020,6.408691,22.033689"
"-0.215942,-0.042603,-0.962891,14.892577,5.615234,20.629881"
"-0.217896,-0.067627,-0.970581,15.014647,6.286621,22.155760"
"-0.215942,-0.021973,-0.957764,16.723633,6.591796,24.658201"
"-0.235962,0.024536,-0.979004,20.690916,9.887695,24.169920"
"-0.241699,0.051758,-0.987305,18.371582,6.530761,19.592285"
"-0.242310,0.058838,-0.955200,16.784668,6.164550,18.310547"
"-0.242065,0.041626,-0.972046,10.009766,6.042480,14.404296"
"-0.238159,0.061035,-1.010620,5.004883,5.187988,14.343261"
"-0.235596,0.089355,-0.998779,4.699707,2.868652,14.526366"
"-0.236206,0.135986,-0.999390,2.990722,2.136230,9.155273"
