"aX,aY,aZ,gX,gY,gZ"
"-0.166382,-0.925293,-0.063232,-10.986327,0.183105,-55.053707"
"-0.125977,-1.084473,-0.101196,-17.028809,-2.563476,-54.382320"
"-0.078735,-1.307861,-0.092896,-23.742674,-5.554199,-42.968746"
"-0.093140,-1.280640,-0.087769,9.277344,-6.286621,-14.282226"
"-0.187866,-1.033325,-0.037598,18.188477,-4.516602,-5.004883"
"-0.232544,-0.862671,0.021973,16.662598,-6.164550,-6.530761"
"-0.192993,-0.895874,-0.018677,6.958007,2.868652,-15.869140"
"-0.179443,-0.952515,-0.105591,-1.586914,12.084960,-21.972654"
"-0.138550,-1.085327,-0.176147,-6.469726,3.662109,-14.221190"
"-0.099976,-1.219849,-0.194702,-9.521484,-0.854492,-5.737304"
"-0.136475,-1.168335,-0.100830,-1.586914,-10.009766,18.249512"
"-0.170288,-1.079712,-0.016602,10.742187,-11.352538,34.118652"
"-0.190674,-0.942627,0.043701,7.995605,-2.197266,32.409668"
"-0.141602,-1.006470,-0.009399,-1.525879,2.441406,29.968260"
"-0.115845,-1.093628,-0.058838,-22.094725,6.164550,32.714844"
"-0.088257,-1.185669,-0.105347,-13.977050,1.098633,48.339840"
"-0.097046,-1.128906,-0.045288,-5.920410,0.854492,55.786129"
"-0.104736,-1.064941,-0.041504,-0.061035,8.300781,66.711426"
"-0.120605,-0.992187,-0.052490,18.981934,9.460449,73.364258"
"-0.135010,-0.818970,-0.062988,26.550291,6.713867,72.265625"
"-0.066895,-0.868042,-0.076172,1.770019,5.920410,57.739254"
"-0.023560,-0.984131,-0.099365,-32.897949,8.544922,46.142574"
"0.007324,-1.092041,-0.113281,-17.028809,1.892090,54.870602"
"0.011353,-1.035767,0.004272,-11.901855,-0.488281,59.265133"
"0.013672,-1.020752,0.032349,-8.056641,6.408691,62.377926"
"0.010864,-0.980957,-0.003662,13.488769,14.160155,64.453125"
"0.044067,-0.978516,-0.046143,21.240232,13.366698,62.927242"
"0.096313,-1.104370,-0.057495,1.770019,11.779784,62.072750"
"0.118530,-1.142700,-0.055664,-12.329101,11.779784,71.533203"
"0.115112,-1.102173,-0.043457,-5.554199,8.666992,86.181633"
"0.105957,-0.966675,-0.009277,-4.882812,9.338379,90.332024"
"0.132446,-0.955322,-0.037109,6.103515,14.770507,87.524406"
"0.155762,-0.969971,-0.056763,16.601562,14.953612,85.571281"
"0.205078,-1.004272,-0.073608,-10.192870,14.465331,86.486809"
"0.247559,-1.066895,-0.077637,-18.615723,13.977050,88.684074"
"0.253296,-1.039795,-0.029785,-30.090330,11.169433,99.121086"
"0.240723,-0.945068,0.036743,-16.723633,12.451171,107.910149"
"0.238647,-0.733643,0.126099,-8.300781,19.409180,104.675285"
"0.300659,-0.795776,0.016479,-14.465331,36.926270,84.289543"
"0.337402,-0.907349,-0.051758,-36.743164,38.696289,72.937012"
"0.415405,-1.110474,-0.127808,-37.719727,35.095215,76.110840"
"0.387329,-0.937012,-0.121460,1.770019,24.475096,96.191399"
"0.361572,-0.767944,-0.108154,20.263670,14.831542,101.074211"
"0.354004,-0.547852,-0.003174,8.850098,15.991210,74.340820"
"0.440308,-0.662720,-0.065063,21.423338,20.996092,57.495113"
"0.510498,-0.862915,-0.194702,30.456541,17.333984,42.785641"
"0.532837,-0.917969,-0.158936,3.417969,1.708984,48.217770"
"0.536255,-0.899658,-0.075806,8.239746,1.953125,59.082027"
"0.507446,-0.700806,-0.056641,11.596679,4.577637,61.645504"
"0.498413,-0.519897,-0.037720,0.610352,10.253905,50.598141"
"0.513428,-0.509766,-0.070190,-27.465818,16.540527,23.559568"
"0.532349,-0.568604,-0.155396,-36.315918,14.770507,11.779784"
"0.584839,-0.747437,-0.130371,-48.400875,4.150391,-4.211426"
"0.607056,-0.818970,-0.097900,-34.606934,-2.502441,-3.112793"
"0.586670,-0.727539,-0.052124,-4.516602,-3.662109,3.906250"
"0.559204,-0.609985,-0.036377,-2.380371,-2.197266,1.159668"
"0.552856,-0.599487,-0.050293,-10.437011,0.671387,-12.268065"
"0.553101,-0.613403,-0.060547,-16.479492,-0.244141,-25.939939"
"0.573242,-0.747437,-0.105347,-21.972654,-0.976562,-31.311033"
"0.600830,-0.921509,-0.073608,-27.832029,-5.676269,-32.470703"
"0.588867,-0.904297,-0.034546,4.333496,-10.253905,-19.165039"
"0.519165,-0.708862,-0.011475,22.766111,-7.019042,-17.333984"
"0.487427,-0.633911,0.019165,17.333984,-4.455566,-24.841307"
"0.486206,-0.699829,-0.073242,2.990722,2.136230,-41.870113"
"0.476685,-0.716675,-0.114624,7.934570,-3.417969,-50.598141"
"0.468628,-0.774536,-0.045654,7.934570,-6.469726,-59.448238"
"0.483765,-0.887695,-0.059814,3.234863,-0.854492,-62.377926"
"0.470093,-0.904663,-0.068726,10.925292,-2.929687,-60.974117"
"0.420410,-0.801392,0.063477,20.812986,1.586914,-61.767574"
"0.371704,-0.723267,-0.005615,14.709472,7.934570,-66.589355"
"0.338379,-0.757812,-0.079834,-2.319336,6.103515,-79.895020"
"0.347046,-0.860229,-0.112183,-23.132322,-3.173828,-90.148918"
"0.350830,-1.060181,-0.142700,-19.104004,-14.770507,-81.787102"
"0.346924,-1.073975,-0.005371,-7.812500,-18.981934,-74.096680"
"0.312622,-0.968628,0.020874,5.310058,-13.549804,-63.232418"
"0.270020,-0.875122,0.019775,6.225585,-9.033203,-62.499996"
"0.203979,-0.773682,0.014648,3.051758,-7.385253,-68.054199"
"0.181763,-0.816406,-0.045898,-3.845215,-5.126953,-82.641594"
"0.179932,-0.883057,-0.073975,-21.362303,-8.483887,-91.491692"
"0.245361,-1.229126,-0.104370,-51.940914,-14.160155,-84.655754"
"0.248413,-1.328857,-0.028809,-25.573729,-18.676758,-67.993164"
"0.132935,-0.924927,0.063110,53.039547,-22.155760,-37.780762"
"0.098755,-0.811768,0.080078,29.541014,-9.887695,-48.217770"
"0.066528,-0.807251,0.009277,7.141113,-4.150391,-58.715816"
"0.061768,-0.903198,-0.044800,-2.624511,-4.455566,-73.974609"
"0.120850,-1.170410,-0.095703,-18.371582,-5.126953,-79.833984"
"0.129639,-1.259766,-0.093994,-1.037598,-10.437011,-62.499996"
"0.082397,-1.114624,-0.015625,28.686522,-14.709472,-49.255367"
"0.014038,-0.898193,0.017944,41.687008,-14.465331,-40.405270"
"-0.003784,-0.864624,0.027100,17.456055,-7.446289,-50.720211"
"-0.028442,-0.855591,0.014771,14.038085,-2.258301,-61.218258"
"-0.034424,-0.892090,-0.050049,13.671874,-0.732422,-65.734863"
"-0.012329,-1.054688,-0.158081,5.126953,1.037598,-71.777344"
"-0.002686,-1.130371,-0.178345,10.803222,-7.507324,-65.246582"
"-0.045044,-1.044556,-0.097168,26.733397,-14.282226,-57.434078"
"-0.088867,-0.906250,0.010376,36.499023,-18.005371,-52.856441"
"-0.103394,-0.955078,-0.006226,9.582520,-7.263183,-60.729977"
"-0.107178,-0.983887,-0.039429,0.976562,-1.220703,-61.401363"
"-0.116943,-1.008911,-0.123169,-2.380371,-0.671387,-59.570309"
"-0.149780,-0.979492,-0.153320,7.507324,-3.662109,-54.992672"
"-0.162109,-0.984009,-0.129150,15.624999,-8.789063,-53.710934"
"-0.162476,-1.019775,-0.109497,9.094238,-10.925292,-53.161617"
"-0.170776,-1.078979,-0.084595,3.051758,-10.375976,-50.415035"
"-0.181885,-1.115234,-0.088989,-15.441894,-8.605957,-41.625973"
"-0.186157,-1.131836,-0.083740,-16.845703,-8.911133,-30.517576"
"-0.197754,-1.121582,-0.086426,5.432128,-9.094238,-16.113281"
"-0.213379,-0.993408,-0.023315,18.005371,-8.728027,-10.986327"
"-0.235962,-1.011597,-0.130737,3.051758,2.380371,-14.099120"
"-0.233398,-1.043701,-0.140503,3.601074,-6.469726,-5.737304"
"-0.201294,-1.062134,-0.043335,3.723144,-3.173828,3.295898"
"-0.179810,-1.131836,-0.099854,-0.793457,2.502441,6.958007"
"-0.208618,-1.016235,-0.092041,6.408691,1.159668,20.812986"
"-0.212280,-0.986084,-0.053955,1.220703,2.014160,23.742674"
"-0.202637,-1.003540,-0.069580,0.061035,6.042480,24.108885"
"-0.186768,-1.019165,-0.120972,7.263183,10.192870,26.916502"
"-0.180298,-1.024780,-0.153442,2.136230,7.507324,31.921385"
"-0.155273,-1.091797,-0.158325,-11.230468,0.183105,39.550781"
"-0.150024,-1.088745,-0.120117,-10.009766,-1.708984,45.410152"
"-0.148193,-1.036621,-0.081665,-3.540039,-1.037598,54.443356"
"-0.147583,-0.999878,-0.079712,0.854492,2.746582,58.776852"
"-0.124634,-0.979004,-0.091553,-3.967285,4.455566,58.776852"
"-0.070312,-1.097656,-0.147217,-23.010252,8.605957,58.410641"
"-0.057495,-1.128662,-0.167603,-15.075683,4.089355,68.420410"
"-0.065308,-1.070679,-0.096802,8.850098,-2.868652,80.078125"
"-0.069946,-0.990845,-0.007813,17.456055,-2.502441,82.092278"
"-0.048706,-0.935425,-0.013428,24.841307,4.028320,79.711914"
"-0.026123,-0.945435,-0.037720,25.329588,10.681151,75.195312"
"0.026855,-0.995239,-0.129028,9.826660,13.610839,74.645996"
""
"0.487915,-0.740479,-0.150513,-14.465331,-5.798339,-22.888182"
"0.469971,-0.734131,-0.146729,-5.981445,-12.634276,-30.456541"
"0.465820,-0.762573,-0.094482,-4.577637,-14.770507,-35.034180"
"0.490112,-0.880005,-0.031494,-14.160155,-14.038085,-41.625973"
"0.486694,-0.887695,0.009155,-2.136230,-6.164550,-39.367676"
"0.448120,-0.809082,-0.043701,3.845215,-2.807617,-39.306641"
"0.410156,-0.757690,-0.080933,7.446289,-3.601074,-44.738766"
"0.398926,-0.772217,-0.108398,3.967285,-5.737304,-53.222652"
"0.399048,-0.872681,-0.153198,-0.549316,-12.756347,-58.044430"
"0.408447,-0.992676,-0.081299,0.915527,-16.357422,-57.006832"
"0.390869,-0.953735,0.049316,16.357422,-15.930175,-49.377438"
"0.373291,-0.898193,0.063354,18.920898,-4.150391,-46.264645"
"0.339233,-0.824829,-0.037720,10.864257,1.159668,-48.034664"
"0.301514,-0.809937,-0.121826,-2.746582,0.244141,-54.199215"
"0.309082,-0.889038,-0.155029,-22.155760,-7.324218,-61.828609"
"0.335205,-1.094482,-0.172729,-3.417969,-18.493652,-53.039547"
"0.300171,-0.992676,-0.049316,16.784668,-22.521971,-45.104977"
"0.253662,-0.849609,0.061646,25.695799,-18.188477,-42.236324"
"0.232422,-0.817505,0.047363,2.746582,-5.126953,-52.185055"
"0.196289,-0.789429,-0.059570,-4.577637,-1.525879,-58.715816"
"0.191406,-0.854126,-0.130981,-5.676269,-3.845215,-72.082520"
"0.209473,-0.978638,-0.135986,-30.578611,-9.643555,-79.406738"
"0.243042,-1.179565,-0.086060,-2.624511,-12.451171,-64.147949"
"0.176758,-1.017822,-0.062378,15.563964,-12.451171,-54.443356"
"0.110352,-0.840332,0.003784,23.498533,-11.169433,-53.222652"
"0.085693,-0.797119,0.008911,3.417969,-4.455566,-66.772461"
"0.033813,-0.779419,-0.026855,-1.098633,-2.746582,-74.951172"
"0.069092,-0.967896,-0.085693,-5.249023,-2.441406,-90.637199"
"0.127563,-1.207153,-0.125122,-47.729488,-2.807617,-90.454094"
"0.167603,-1.464722,-0.103149,2.258301,-11.718749,-49.804684"
"0.055420,-1.086304,-0.004028,36.254883,-14.953612,-30.761717"
"-0.037354,-0.808105,0.066650,40.039062,-8.666992,-27.709959"
"-0.038452,-0.795044,0.034546,13.061522,7.080078,-47.058102"
"-0.036865,-0.846680,-0.070435,-3.479004,9.216309,-57.678219"
"-0.041382,-0.881836,-0.128540,-1.770019,6.164550,-61.035152"
"-0.023560,-0.984253,-0.162720,0.610352,0.427246,-65.307617"
"-0.025635,-1.025146,-0.177856,1.586914,-7.873535,-61.889645"
"-0.063965,-0.966064,-0.162720,10.742187,-13.916015,-59.020992"
"-0.107056,-0.910889,-0.068481,14.160155,-21.728514,-60.729977"
"-0.121216,-0.929565,-0.044922,9.582520,-18.432617,-68.115234"
"-0.128662,-0.972046,0.018921,3.112793,-7.751464,-72.814941"
"-0.143677,-1.072266,-0.052002,-7.934570,-0.671387,-74.279785"
"-0.160278,-1.114136,-0.083130,-6.408691,0.000000,-63.415524"
"-0.154785,-1.120972,-0.074951,-5.798339,0.976562,-50.292965"
"-0.145508,-1.197510,-0.088501,-20.446775,4.638672,-38.696289"
"-0.184692,-1.166382,-0.094116,-10.131835,3.356933,-29.052732"
"-0.232056,-1.021851,-0.083984,10.131835,0.244141,-12.756347"
"-0.244141,-0.971191,-0.082764,7.446289,-1.281738,-8.789063"
"-0.237671,-0.935181,-0.065918,5.310058,-1.098633,-11.108397"
"-0.213867,-0.962036,-0.095093,3.295898,0.366211,-12.634276"
"-0.180298,-1.046753,-0.101196,-0.122070,0.244141,-12.451171"
"-0.174805,-1.069824,-0.108765,-5.065917,0.000000,-3.479004"
"-0.203491,-1.023682,-0.100464,-0.366211,-3.662109,5.493164"
"-0.232178,-0.922119,-0.059082,5.554199,-4.333496,7.019042"
"-0.224121,-0.934570,-0.097168,0.915527,-0.549316,3.051758"
"-0.205200,-1.002563,-0.123901,-11.047362,0.610352,1.525879"
"-0.158203,-1.174805,-0.140137,-14.282226,-1.098633,5.493164"
"-0.152954,-1.206177,-0.092407,-6.103515,-5.493164,23.193357"
"-0.159058,-1.195435,-0.069458,-0.488281,-5.676269,41.809078"
"-0.197876,-1.102783,-0.069946,9.765625,-4.638672,57.006832"
"-0.226440,-0.894653,-0.076904,15.930175,-5.493164,59.692379"
"-0.190063,-0.855835,-0.088623,6.286621,-5.065917,51.147457"
"-0.161621,-0.911011,-0.105469,-17.028809,-2.746582,41.931149"
"-0.090332,-1.099854,-0.091431,-22.583006,-2.197266,44.311520"
"-0.067505,-1.168335,-0.042847,-15.686034,-0.915527,50.415035"
"-0.099121,-1.034180,-0.018677,2.746582,4.028320,67.199707"
"-0.108521,-0.949463,-0.026489,7.995605,7.019042,71.838379"
"-0.089844,-0.905273,-0.028687,0.122070,7.812500,68.542480"
"-0.039307,-0.979248,-0.060059,-19.592285,11.291503,61.157223"
"-0.021362,-1.009155,-0.078003,-18.188477,11.901855,60.546871"
"0.026978,-1.130615,-0.093994,-22.644041,13.061522,66.406250"
"0.072754,-1.310547,-0.098145,-22.216795,13.610839,74.279785"
"0.058472,-1.270996,-0.081543,43.334957,6.713867,100.891106"
"-0.003784,-0.911865,-0.015137,59.631344,3.723144,109.924309"
"0.011963,-0.801025,0.018066,40.893551,6.896972,101.074211"
"0.070679,-0.836792,-0.020874,27.160643,13.061522,84.655754"
"0.097412,-0.830078,-0.053467,-2.868652,18.920898,74.035645"
"0.188599,-0.998901,-0.181396,-27.221678,21.850584,68.481445"
"0.229126,-1.142212,-0.184570,-26.855467,14.526366,73.364258"
"0.198364,-0.949097,-0.052856,22.033689,1.159668,91.979973"
"0.199707,-0.891968,-0.033081,51.269527,3.845215,91.491692"
"0.216797,-0.817261,-0.049927,55.603024,6.042480,87.646477"
"0.266846,-0.844360,-0.083008,12.756347,9.765625,75.195312"
"0.297119,-0.907593,-0.095093,-35.156250,13.244628,67.077637"
"0.344238,-1.018311,-0.116089,-46.936031,15.014647,68.054199"
"0.358276,-1.024170,-0.089722,-55.053707,17.211914,76.904297"
"0.338623,-0.841064,-0.073242,-20.324705,19.287109,86.120598"
"0.342163,-0.777954,-0.115845,7.385253,19.775391,79.467773"
"0.382690,-0.832642,-0.148560,2.441406,16.845703,73.120117"
"0.451660,-0.974854,-0.105713,-10.620116,13.488769,68.176270"
"0.451904,-0.946045,-0.091309,5.004883,12.939452,78.979492"
"0.440430,-0.780640,-0.062744,2.136230,14.831542,80.627434"
"0.434692,-0.669189,-0.118408,-3.601074,16.784668,75.744629"
"0.465576,-0.657837,-0.174194,-1.708984,15.991210,59.020992"
"0.489136,-0.693848,-0.197876,-9.460449,10.192870,43.579098"
"0.537231,-0.787354,-0.146118,-12.084960,6.042480,39.428711"
"0.550293,-0.779907,-0.082642,4.821777,3.540039,38.574219"
"0.541626,-0.706299,-0.065430,8.789063,7.202148,38.391113"
"0.531738,-0.581909,-0.109009,-4.760742,9.643555,33.081055"
"0.517578,-0.515991,-0.175293,-20.385740,7.629394,15.624999"
"0.544678,-0.616211,-0.225586,-27.709959,0.427246,-6.652832"
"0.576294,-0.741699,-0.192017,-36.621094,-10.437011,-17.944336"
"0.596069,-0.798462,-0.024780,-21.728514,-13.732909,-15.258788"
"0.583374,-0.748169,-0.005981,-0.061035,-7.019042,-10.559081"
"0.572144,-0.735596,-0.041870,-14.160155,-0.305176,-10.925292"
"0.555786,-0.744629,-0.093628,-17.944336,-0.854492,-14.465331"
"0.550293,-0.742798,-0.136108,-9.521484,-1.708984,-16.357422"
"0.561279,-0.798340,-0.115112,-9.826660,-6.286621,-20.629881"
"0.564697,-0.815308,-0.079712,-19.775391,-8.728027,-19.592285"
"0.544312,-0.778809,-0.029663,-14.160155,-5.798339,-18.127441"
"0.517090,-0.716797,-0.040894,-10.986327,-3.173828,-19.592285"
"0.502808,-0.741577,-0.103149,-14.221190,-0.427246,-26.245115"
"0.510742,-0.796265,-0.119507,-18.981934,-6.164550,-31.249998"
"0.532593,-0.914185,-0.071411,6.408691,-11.108397,-27.404783"
"0.521362,-0.863403,-0.007446,24.475096,-10.925292,-23.559568"
"0.498657,-0.787354,-0.009033,29.479979,-1.770019,-22.766111"
"0.480591,-0.756104,-0.061523,15.502929,3.723144,-29.602049"
"0.449951,-0.723999,-0.066895,8.483887,0.305176,-33.874512"
"0.432129,-0.734741,-0.064819,-4.211426,-4.333496,-42.602535"
"0.427368,-0.844482,-0.078369,-16.845703,-7.202148,-51.635738"
"0.436279,-0.938354,-0.065552,-26.306150,-10.314940,-54.443356"
"0.452881,-1.047119,-0.034912,-18.066406,-10.253905,-50.354000"
"0.398193,-0.910400,0.001953,10.375976,-9.643555,-38.269043"
"0.352539,-0.783569,0.049316,13.000487,-7.934570,-40.222164"
"0.348511,-0.786621,0.019531,1.037598,-1.708984,-52.734371"
"0.338257,-0.864624,-0.075073,-5.676269,-1.953125,-57.006832"
"0.334473,-0.931885,-0.046753,-12.390136,-8.422852,-59.509274"
"0.325439,-0.949097,-0.047974,-9.399414,-7.202148,-58.959957"
""
"-0.193359,-1.012695,-0.059937,-0.244141,-4.089355,-6.713867"
"-0.185669,-1.053833,-0.067139,-3.784179,-1.342773,-3.295898"
"-0.183350,-1.077515,-0.069336,-7.446289,-0.305176,5.065917"
"-0.180176,-1.104370,-0.068970,-3.112793,0.854492,16.052246"
"-0.193481,-1.026001,-0.052246,5.126953,2.014160,21.179197"
"-0.187988,-0.966309,-0.054199,9.277344,4.150391,24.841307"
"-0.180786,-0.979126,-0.066284,-2.319336,5.249023,25.207518"
"-0.149170,-1.084351,-0.071045,-8.972168,5.004883,27.038572"
"-0.139404,-1.107544,-0.084106,-6.958007,5.676269,37.353516"
"-0.122437,-1.150391,-0.094116,-19.531250,6.835937,47.790524"
"-0.089722,-1.251953,-0.097412,-20.507811,7.263183,56.091305"
"-0.147583,-1.022949,-0.083374,9.948730,3.601074,77.392578"
"-0.181885,-0.878296,-0.027588,22.644041,-2.685547,78.735352"
"-0.162842,-0.799316,0.028198,14.953612,0.915527,70.617676"
"-0.078857,-0.940552,-0.051147,-7.995605,13.061522,54.260250"
"-0.011719,-1.066406,-0.147217,-16.235352,16.479492,51.574703"
"0.014038,-1.121704,-0.163696,-16.723633,10.314940,59.265133"
"0.010010,-1.080200,-0.091064,-1.098633,6.347656,66.589355"
"-0.026611,-0.916382,-0.028931,56.518551,-0.305176,74.768066"
"-0.021729,-0.861938,-0.007080,95.214836,-2.197266,69.946289"
"0.034424,-0.848755,-0.031128,22.583006,8.850098,56.518551"
"0.102173,-1.000244,-0.117554,-7.873535,14.160155,52.185055"
"0.142212,-1.103638,-0.209473,-34.912109,16.418457,56.823727"
"0.140747,-1.110229,-0.192749,-34.362793,10.253905,70.678711"
"0.127563,-1.041382,-0.094971,-22.338865,8.544922,76.293945"
"0.093140,-0.846802,-0.052368,17.028809,7.995605,82.153313"
"0.097412,-0.790771,-0.061890,5.859375,9.521484,70.678711"
"0.179443,-0.948242,-0.169434,-17.822266,10.620116,62.255856"
"0.227295,-1.080322,-0.231934,-37.170410,2.990722,61.157223"
"0.227783,-1.079590,-0.178467,-36.193848,-10.131835,72.265625"
"0.205078,-0.990112,0.059814,-19.104004,-0.732422,77.575684"
"0.230225,-0.891724,0.092651,-4.943848,12.573241,75.622559"
"0.227783,-0.816528,-0.017456,14.465331,24.414061,70.251465"
"0.246216,-0.827026,-0.075317,2.136230,22.766111,59.509274"
"0.318726,-0.988525,-0.198120,-0.244141,20.019531,56.091305"
"0.330078,-0.992065,-0.166382,-0.854492,5.615234,62.927242"
"0.318726,-0.936401,-0.049194,3.845215,-1.525879,68.908691"
"0.332764,-0.824341,0.053833,-11.230468,18.737793,61.523434"
"0.364868,-0.838257,-0.084351,-17.517090,24.291990,56.152340"
"0.375366,-0.834595,-0.110962,-6.896972,17.395020,50.659176"
"0.405029,-0.834839,-0.168091,-12.695312,9.704590,44.799801"
"0.448975,-0.942993,-0.221680,-17.150879,4.455566,43.884274"
"0.440430,-0.901611,-0.081787,-12.817382,-10.131835,52.185055"
"0.419312,-0.799072,0.034790,-1.770019,-7.995605,55.236813"
"0.448730,-0.735718,0.075073,-2.624511,3.417969,48.767086"
"0.478149,-0.776855,-0.104370,-7.263183,18.676758,37.597656"
"0.477173,-0.750244,-0.136719,-6.347656,10.253905,34.057617"
"0.477905,-0.703735,-0.144653,-9.277344,4.272461,24.353025"
"0.489746,-0.724854,-0.110962,-11.230468,2.014160,18.798828"
"0.495361,-0.689575,-0.045654,-2.929687,0.549316,10.070800"
"0.501343,-0.695923,-0.052002,-13.916015,3.601074,0.305176"
"0.517334,-0.768066,-0.090332,-22.766111,3.173828,-3.295898"
"0.530273,-0.827393,-0.078491,-14.282226,-0.976562,-5.187988"
"0.515259,-0.780762,-0.076416,14.343261,-2.624511,-2.868652"
"0.504761,-0.753662,-0.065430,9.643555,-2.868652,-5.859375"
"0.489258,-0.731445,-0.060425,1.037598,-2.258301,-9.399414"
"0.497192,-0.802246,-0.098389,-17.272949,-1.831055,-17.395020"
"0.502563,-0.843140,-0.112305,-18.615723,-5.004883,-19.165039"
"0.489990,-0.827148,-0.063843,-6.835937,-8.544922,-18.005371"
"0.490112,-0.833618,0.001221,-12.390136,-7.080078,-19.287109"
"0.474243,-0.838989,-0.022949,-14.099120,-2.258301,-20.202635"
"0.455811,-0.799316,-0.042236,-1.159668,-1.586914,-21.667479"
"0.455078,-0.808228,-0.081421,-2.563476,-2.075195,-25.695799"
"0.460693,-0.867310,-0.078247,-1.647949,-4.760742,-30.761717"
"0.455566,-0.857788,-0.083130,7.751464,-9.643555,-30.578611"
"0.430054,-0.814575,-0.011353,5.676269,-12.878417,-33.264160"
"0.427612,-0.850952,0.014893,0.732422,-9.948730,-35.766602"
"0.419434,-0.896606,-0.033691,-5.798339,-4.150391,-37.475586"
"0.412598,-0.909180,-0.055176,-0.610352,-5.065917,-36.926270"
"0.413452,-0.933838,-0.063599,-2.807617,-7.019042,-36.254883"
"0.396240,-0.944458,-0.042725,-1.281738,-9.155273,-34.118652"
"0.375000,-0.910034,0.002808,3.112793,-11.230468,-30.517576"
"0.370239,-0.902466,-0.002808,-0.183105,-8.850098,-30.395506"
"0.339478,-0.863892,-0.029175,3.234863,-9.399414,-32.531738"
"0.333984,-0.865845,-0.016357,3.295898,-9.582520,-35.766602"
"0.338867,-0.928467,-0.025635,-3.784179,-8.422852,-40.954586"
"0.325806,-0.911865,-0.020752,5.187988,-10.742187,-39.916992"
"0.308472,-0.889282,-0.013916,1.037598,-9.765625,-43.884274"
"0.304565,-0.945923,-0.042358,-2.136230,-9.338379,-45.104977"
"0.272095,-0.876587,-0.022095,8.544922,-12.451171,-43.334957"
"0.252441,-0.822876,-0.024170,13.000487,-11.718749,-49.072262"
"0.212524,-0.782104,-0.058960,7.873535,-12.817382,-64.147949"
"0.231812,-0.959839,-0.082153,-2.441406,-14.770507,-71.350098"
"0.271729,-1.140991,-0.038818,-5.798339,-18.859863,-69.763184"
"0.260864,-1.108398,-0.008057,2.624511,-18.920898,-52.185055"
"0.198853,-0.979492,0.055054,9.399414,-14.770507,-45.532223"
"0.145508,-0.874634,0.017944,11.230468,-11.047362,-46.264645"
"0.119873,-0.862793,-0.071655,10.314940,-8.056641,-53.894039"
"0.107788,-0.869873,-0.114990,13.244628,-14.831542,-60.974117"
"0.110474,-0.944336,-0.128906,8.972168,-23.986814,-67.565918"
"0.147949,-1.104492,-0.059326,4.882812,-25.695799,-67.382812"
"0.122803,-1.060425,0.038330,10.559081,-25.573729,-55.725094"
"0.096924,-0.985229,0.062744,13.610839,-17.822266,-48.645016"
"0.040283,-0.925537,-0.005249,5.798339,-13.183593,-50.537106"
"0.001709,-0.873047,-0.041748,7.812500,-11.352538,-57.617184"
"-0.022705,-0.889893,-0.098633,7.934570,-12.329101,-68.847656"
"-0.013794,-0.922241,-0.088257,8.911133,-18.981934,-72.814941"
"0.015015,-1.097534,-0.080688,-7.202148,-18.310547,-73.547363"
"0.022339,-1.243530,-0.040405,-19.042969,-17.333984,-64.025879"
"-0.004150,-1.189453,-0.004761,12.084960,-18.371582,-41.137691"
"-0.067139,-1.020386,0.036011,9.033203,-12.817382,-34.362793"
"-0.102905,-0.973022,-0.029419,3.906250,-9.155273,-35.400391"
"-0.120239,-0.945679,-0.042847,7.629394,-8.972168,-38.696289"
"-0.112671,-0.962646,-0.028564,6.042480,-7.995605,-43.762203"
"-0.098755,-1.046387,-0.053101,0.854492,-5.859375,-41.259762"
"-0.090454,-1.091064,-0.058105,0.854492,-5.981445,-36.621094"
"-0.121948,-1.002686,-0.060913,7.568359,-6.042480,-26.306150"
"-0.143677,-0.948730,-0.052490,4.150391,-7.385253,-25.329588"
"-0.162109,-0.904541,-0.026367,3.051758,-7.812500,-28.259275"
"-0.152588,-0.926758,-0.047729,-0.549316,-5.920410,-34.912109"
"-0.147461,-0.971436,-0.099609,-2.319336,-4.211426,-37.658691"
"-0.146362,-0.995850,-0.113770,0.244141,-6.286621,-36.010742"
"-0.154175,-1.004028,-0.097412,3.906250,-8.300781,-33.691406"
"-0.167603,-1.032715,-0.069946,-1.708984,-11.047362,-29.602049"
"-0.197876,-0.987305,-0.014038,5.004883,-11.718749,-23.620604"
"-0.208130,-0.936035,0.000977,9.765625,-7.263183,-22.460936"
"-0.208984,-0.962646,-0.075562,1.098633,-3.173828,-25.634764"
"-0.192139,-1.048340,-0.100220,-1.831055,-2.807617,-25.817869"
"-0.178101,-1.115356,-0.087646,0.976562,-5.676269,-17.333984"
"-0.185913,-1.116333,-0.080322,9.887695,-6.713867,-3.967285"
"-0.221558,-0.975586,-0.018433,16.845703,-5.676269,3.234863"
"-0.229126,-0.939209,-0.030762,8.544922,-1.281738,1.770019"
"-0.213135,-1.007935,-0.116943,-5.859375,3.601074,-0.305176"
"-0.203613,-1.051636,-0.122314,-6.530761,-0.061035,4.821777"
"-0.188477,-1.116943,-0.067871,-4.455566,-0.549316,15.747069"
"-0.187744,-1.117310,-0.022705,-0.305176,1.281738,22.705076"
"-0.177612,-1.112671,-0.000977,-1.770019,6.103515,34.423828"
"-0.166870,-1.150757,-0.023193,-9.643555,13.916015,45.104977"
""
"0.520996,-0.800903,-0.131226,-23.010252,6.408691,6.164550"
"0.546631,-0.862427,-0.059814,-17.211914,-1.525879,6.652832"
"0.542114,-0.825195,-0.028198,20.629881,-1.647949,13.305663"
"0.517212,-0.720337,-0.019165,25.329588,0.549316,13.671874"
"0.497437,-0.661743,-0.031860,7.507324,3.784179,6.835937"
"0.497803,-0.666382,-0.076904,-13.122558,6.591796,-5.737304"
"0.517212,-0.747681,-0.164673,-17.639160,4.699707,-11.291503"
"0.528320,-0.807251,-0.113281,-13.610839,-5.249023,-15.075683"
"0.517578,-0.789917,-0.055176,-3.967285,-10.375976,-13.427733"
"0.497314,-0.761108,-0.005249,-10.009766,-5.371093,-16.784668"
"0.489868,-0.776855,-0.015015,-11.962890,-3.112793,-19.226074"
"0.489624,-0.833130,-0.070679,-10.559081,-2.441406,-23.559568"
"0.489868,-0.861938,-0.087280,5.554199,-7.385253,-23.925779"
"0.474487,-0.827271,-0.071899,20.141600,-12.695312,-22.766111"
"0.451416,-0.790161,-0.021484,17.700195,-14.160155,-24.536131"
"0.447021,-0.800049,0.055542,13.732909,-9.643555,-31.555174"
"0.440796,-0.800781,-0.002197,8.850098,4.028320,-39.428711"
"0.437500,-0.858643,-0.087891,5.004883,2.441406,-42.419430"
"0.432983,-0.884766,-0.079956,4.821777,-6.225585,-41.625973"
"0.419067,-0.844727,-0.059448,16.723633,-11.901855,-39.794922"
"0.391235,-0.810181,-0.020874,5.798339,-11.169433,-46.142574"
"0.375244,-0.871094,-0.012695,-0.549316,-9.887695,-48.583981"
"0.356689,-0.904419,-0.045044,-3.356933,-6.164550,-50.537106"
"0.347046,-0.910400,-0.067993,-0.061035,-6.103515,-51.513668"
"0.322388,-0.883789,-0.073120,3.173828,-8.178711,-51.818844"
"0.281006,-0.812988,-0.072754,3.112793,-11.169433,-55.053707"
"0.263184,-0.788452,-0.082031,9.399414,-14.038085,-64.941406"
"0.236938,-0.800415,-0.081665,4.821777,-18.188477,-77.819824"
"0.255859,-0.915161,-0.081299,-6.408691,-18.798828,-82.885735"
"0.244141,-1.022339,-0.101807,-17.456055,-21.911619,-84.228508"
"0.210205,-1.009033,-0.071289,2.807617,-27.709959,-76.721191"
"0.190063,-0.983887,-0.007690,24.108885,-29.968260,-72.998047"
"0.153076,-0.931641,0.069214,29.785154,-26.489256,-73.181152"
"0.124756,-0.939453,0.008545,18.615723,-16.479492,-76.538086"
"0.118774,-0.986694,-0.042847,-1.464844,-14.038085,-79.040527"
"0.115967,-1.087402,-0.083130,-2.685547,-17.211914,-73.242187"
"0.097046,-1.096802,-0.078491,4.821777,-18.249512,-68.420410"
"0.062256,-1.019775,-0.041016,19.409180,-20.874022,-58.898922"
"0.042114,-0.959717,-0.010498,28.076170,-17.761230,-56.762691"
"-0.003784,-0.884033,-0.045654,25.146482,-14.709472,-59.509274"
"-0.029419,-0.872192,-0.045654,22.399900,-8.972168,-72.265625"
"-0.043823,-0.945190,-0.114014,8.422852,-5.737304,-81.665031"
"-0.042480,-0.969360,-0.114502,7.690429,-13.732909,-80.017090"
"-0.018311,-1.112061,-0.099365,-1.098633,-13.977050,-80.017090"
"-0.050659,-1.157349,-0.131348,2.868652,-11.230468,-70.434570"
"-0.077148,-1.097290,-0.122192,21.057127,-16.784668,-54.687496"
"-0.132080,-0.993774,-0.074707,20.324705,-19.042969,-51.269527"
"-0.153076,-0.973145,-0.073975,15.869140,-18.432617,-51.086422"
"-0.154541,-0.979614,-0.064575,16.845703,-13.671874,-53.283688"
"-0.150635,-1.015747,-0.080566,-1.647949,-6.958007,-55.297848"
"-0.136841,-1.115723,-0.141357,-8.178711,-5.859375,-53.039547"
"-0.148193,-1.134033,-0.128174,-3.051758,-10.559081,-40.405270"
"-0.162842,-1.079956,-0.090820,12.512206,-14.892577,-25.207518"
"-0.205811,-0.957764,-0.053345,12.817382,-10.009766,-24.353025"
"-0.217041,-0.928223,-0.085327,5.249023,-6.958007,-27.099607"
"-0.201782,-0.977417,-0.130615,-5.981445,-5.371093,-30.944822"
"-0.193970,-1.010376,-0.135986,-1.708984,-6.286621,-28.320311"
"-0.177246,-1.069458,-0.116943,1.342773,-6.225585,-20.263670"
"-0.176025,-1.109009,-0.092041,0.427246,-5.798339,-14.526366"
"-0.204346,-1.036621,-0.059448,5.737304,-4.028320,-1.525879"
"-0.214966,-1.007690,-0.058716,1.770019,1.770019,3.784179"
"-0.220825,-0.986816,-0.118042,2.807617,5.065917,6.347656"
"-0.212646,-0.962402,-0.173706,2.136230,4.028320,7.263183"
"-0.186768,-1.053223,-0.164185,-6.713867,-0.366211,8.117676"
"-0.171021,-1.106201,-0.134766,-4.638672,-2.380371,16.662598"
"-0.189453,-1.047729,-0.082520,5.615234,-2.258301,23.803709"
"-0.184326,-1.031860,-0.054199,-0.366211,0.305176,29.846189"
"-0.163574,-1.098022,-0.070923,-21.484373,8.422852,34.240723"
"-0.162231,-1.063110,-0.124390,-3.234863,7.263183,47.546383"
"-0.153931,-1.037476,-0.112793,-10.192870,5.493164,49.682613"
"-0.082153,-1.268188,-0.052856,-43.823238,6.652832,54.016109"
"-0.078369,-1.285522,-0.012939,3.479004,8.728027,79.711914"
"-0.131714,-1.056641,0.006836,28.564451,10.620116,91.613762"
"-0.102173,-1.066284,-0.047241,-9.704590,20.324705,94.421379"
"-0.078857,-1.090332,-0.114380,-34.606934,26.123045,97.106926"
"-0.080322,-1.024292,-0.126953,-23.010252,23.254393,105.590813"
"-0.060181,-0.908447,-0.088379,-20.874022,21.850584,105.346672"
"-0.019897,-0.906372,-0.069702,-26.611326,20.935057,97.656242"
"-0.002075,-0.892334,-0.052368,-17.333984,19.287109,90.942375"
"0.063599,-0.915527,-0.067749,-16.296387,20.385740,81.787102"
"0.112183,-1.002197,-0.085327,-14.282226,18.493652,80.322258"
"0.135132,-0.970703,-0.040527,-4.760742,13.671874,83.374016"
"0.140747,-0.947754,-0.048584,-12.573241,14.343261,82.336418"
"0.191406,-1.033447,-0.063477,-24.536131,13.305663,79.223633"
"0.227661,-1.123047,-0.021484,-19.775391,12.939452,84.045403"
"0.181274,-0.887329,0.028198,13.427733,12.084960,100.769035"
"0.193848,-0.828247,0.033325,-4.150391,20.202635,94.421379"
"0.229370,-0.851562,-0.037842,-14.160155,24.658201,88.562004"
"0.264160,-0.849365,-0.132935,-18.066406,22.705076,81.665031"
"0.305542,-0.920410,-0.161987,-31.005857,11.108397,74.523926"
"0.355347,-0.999512,-0.169434,-13.000487,-3.845215,81.848137"
"0.322998,-0.856812,0.005493,-1.647949,-9.155273,84.838860"
"0.354004,-0.764771,0.137451,25.939939,-0.549316,77.758789"
"0.389038,-0.768799,0.088623,60.180660,17.333984,63.659664"
"0.418579,-0.784180,-0.037476,72.753906,17.883301,59.448238"
"0.456787,-0.822876,-0.110352,37.963867,12.695312,53.222652"
"0.479614,-0.871948,-0.156616,-2.319336,9.155273,49.987789"
"0.499268,-0.889526,-0.220581,-1.892090,-2.807617,57.006832"
"0.459839,-0.723145,-0.034302,-1.953125,-9.521484,59.143063"
"0.473022,-0.630493,0.088989,-3.845215,-2.868652,47.973629"
"0.490234,-0.644409,0.047485,13.488769,14.831542,30.212400"
"0.518433,-0.702515,-0.115479,6.835937,17.272949,24.536131"
"0.532959,-0.751587,-0.154663,-14.953612,8.789063,17.822266"
"0.538330,-0.757690,-0.152588,-13.488769,1.220703,14.038085"
"0.543335,-0.748291,-0.129517,-16.540527,-2.868652,10.803222"
"0.534424,-0.705322,-0.070312,-21.301268,-4.333496,8.605957"
"0.521118,-0.671387,0.015259,-23.925779,-4.455566,0.976562"
"0.524780,-0.679443,0.029053,-27.893064,3.601074,-10.131835"
"0.558228,-0.782471,-0.067749,-33.203125,8.239746,-14.770507"
"0.567627,-0.838379,-0.154785,-20.690916,5.737304,-15.258788"
"0.563110,-0.831055,-0.146362,-2.624511,-5.615234,-10.620116"
"0.536865,-0.773804,-0.096436,6.896972,-10.742187,-9.399414"
"0.512451,-0.734375,-0.028809,5.798339,-11.169433,-11.657714"
"0.506592,-0.752319,0.021973,-2.075195,-7.568359,-19.104004"
"0.509766,-0.774780,0.005005,-11.657714,0.915527,-26.367186"
"0.512573,-0.826172,-0.069214,-8.850098,4.211426,-29.907225"
"0.498901,-0.827637,-0.095093,-4.455566,0.305176,-29.296873"
"0.493286,-0.830078,-0.030396,3.784179,-8.361816,-29.541014"
"0.484253,-0.833496,-0.010986,6.408691,-8.422852,-29.357908"
"0.461304,-0.793823,0.030884,12.023925,-6.225585,-30.273436"
"0.457520,-0.791992,-0.040527,13.366698,2.990722,-37.719727"
"0.454590,-0.813599,-0.096069,6.042480,3.234863,-44.799801"
"0.435303,-0.826660,-0.117310,5.676269,-6.530761,-48.156734"
"0.442749,-0.899902,-0.055176,2.380371,-9.155273,-49.377438"
"0.424561,-0.921021,0.031006,1.647949,-9.826660,-45.532223"
"0.407959,-0.891602,0.076294,-0.671387,-4.943848,-40.771481"
"0.384399,-0.862671,0.015503,-5.676269,0.854492,-41.564938"
"0.354858,-0.852051,-0.083862,-9.216309,3.723144,-45.837399"
""
"-0.186523,-1.089600,-0.113281,15.136718,-8.972168,-25.329588"
"-0.218628,-1.016846,-0.056519,15.441894,-10.375976,-20.446775"
"-0.234985,-0.980469,-0.004395,11.169433,-7.873535,-15.930175"
"-0.239136,-0.969604,-0.068848,5.615234,0.854492,-14.953612"
"-0.237793,-0.965210,-0.114624,5.920410,2.136230,-14.465331"
"-0.236816,-0.963013,-0.161133,4.638672,-3.967285,-12.634276"
"-0.242432,-0.934570,-0.136108,9.155273,-6.103515,-11.901855"
"-0.237061,-0.937012,-0.085327,6.164550,-7.080078,-13.549804"
"-0.236816,-0.937012,-0.065430,3.234863,-5.187988,-14.404296"
"-0.228271,-0.991333,-0.061035,-1.281738,-3.112793,-14.831542"
"-0.197754,-1.182373,-0.090088,-16.845703,1.525879,-10.864257"
"-0.193848,-1.230713,-0.096802,-8.972168,2.258301,9.521484"
"-0.239136,-1.099487,-0.052246,13.305663,1.953125,29.663084"
"-0.266235,-0.949829,-0.052734,15.563964,4.638672,32.653809"
"-0.266113,-0.906738,-0.121582,7.934570,8.972168,29.724119"
"-0.250366,-0.927124,-0.137329,2.746582,6.591796,25.268553"
"-0.193115,-1.073242,-0.110962,-12.207030,3.417969,27.954100"
"-0.125732,-1.291870,-0.068726,-17.761230,3.967285,35.888672"
"-0.141968,-1.239746,-0.031738,-0.854492,7.324218,64.086914"
"-0.166748,-1.153931,-0.010986,8.056641,13.732909,84.899895"
"-0.186279,-1.052979,-0.044556,2.868652,17.517090,89.233391"
"-0.187988,-0.985596,-0.062866,4.943848,17.883301,93.139641"
"-0.169434,-0.960815,-0.078491,4.028320,19.836426,92.895500"
"-0.112061,-1.008789,-0.143188,-15.014647,20.446775,90.881340"
"-0.059448,-1.089478,-0.133301,-21.667479,18.127441,92.956535"
"-0.037476,-1.069702,-0.082031,-14.221190,15.258788,101.867668"
"-0.040527,-1.017700,-0.059692,20.629881,15.319823,108.398430"
"-0.018555,-0.907715,-0.034668,28.747557,15.991210,104.125969"
"0.028687,-0.943481,-0.011597,11.291503,17.089844,99.121086"
"0.075195,-0.984253,-0.053467,-3.417969,21.301268,94.665520"
"0.103027,-0.996216,-0.110718,-22.216795,23.681639,93.811028"
"0.153931,-1.087402,-0.157349,-33.142090,21.240232,94.482414"
"0.160034,-1.034302,-0.055420,-22.705076,16.113281,104.370110"
"0.160767,-0.968628,-0.021118,12.329101,22.094725,110.229485"
"0.183838,-0.888062,-0.090088,17.883301,25.146482,108.947746"
"0.261353,-1.015015,-0.153320,-8.483887,22.399900,103.210442"
"0.292236,-1.026489,-0.199829,-23.803709,13.366698,112.304680"
"0.278931,-0.951660,-0.180542,-21.118162,-0.915527,123.840324"
"0.267944,-0.826904,0.024048,-21.057127,2.563476,116.882317"
"0.328491,-0.791870,0.083984,-16.235352,15.441894,109.619133"
"0.344727,-0.764526,0.023193,27.832029,32.287598,96.679680"
"0.379028,-0.724487,-0.066406,11.474608,30.822752,81.481926"
"0.443237,-0.819214,-0.118286,-6.469726,30.456541,75.195312"
"0.437744,-0.690918,-0.136353,-0.671387,25.817869,71.655273"
"0.443848,-0.613647,-0.130127,-10.986327,19.714355,58.959957"
"0.477539,-0.593628,-0.148071,-26.000975,16.235352,38.513184"
"0.490356,-0.567993,-0.143555,-20.690916,13.427733,29.663084"
"0.518921,-0.631958,-0.156128,-10.803222,8.239746,10.986327"
"0.536865,-0.700317,-0.141602,-11.413573,1.525879,0.000000"
"0.572754,-0.798096,-0.085693,-14.587401,-0.427246,-0.610352"
"0.584717,-0.805908,-0.098022,-15.563964,0.305176,3.601074"
"0.576294,-0.778320,-0.116699,-10.864257,1.037598,7.080078"
"0.538574,-0.664429,-0.105347,-9.887695,-0.488281,6.286621"
"0.529297,-0.623535,-0.089355,-18.920898,-1.831055,-4.455566"
"0.540405,-0.705688,-0.133545,-29.602049,-1.586914,-18.310547"
"0.547607,-0.765381,-0.136108,-12.451171,-8.178711,-23.620604"
"0.556274,-0.825684,-0.085083,9.765625,-12.817382,-20.019531"
"0.533203,-0.821411,-0.031006,10.925292,-12.756347,-18.066406"
"0.505371,-0.796265,0.016724,7.507324,-10.986327,-16.723633"
"0.500244,-0.798340,0.015625,3.845215,-4.699707,-20.874022"
"0.504395,-0.838379,-0.046753,2.624511,-1.464844,-23.437498"
"0.495605,-0.810425,-0.067505,7.995605,0.915527,-27.221678"
"0.483398,-0.773926,-0.080566,19.042969,5.126953,-36.560059"
"0.469482,-0.763306,-0.091309,15.747069,2.380371,-45.532223"
"0.468750,-0.796387,-0.073486,15.319823,-0.854492,-46.936031"
"0.453613,-0.805542,-0.105835,12.268065,-0.183105,-48.217770"
"0.431763,-0.802612,-0.079224,7.019042,-5.859375,-48.706051"
"0.424194,-0.798584,-0.086792,0.915527,-7.080078,-49.377438"
"0.397095,-0.789062,-0.081055,2.197266,-7.812500,-51.513668"
"0.382324,-0.799927,-0.125366,2.075195,-7.202148,-59.814449"
"0.375244,-0.841919,-0.140869,-14.099120,-13.549804,-66.528320"
"0.362061,-0.939697,-0.079346,-22.094725,-18.981934,-65.246582"
"0.370361,-1.059082,-0.041016,-26.000975,-17.883301,-62.255856"
"0.342163,-1.020264,-0.016968,-13.305663,-15.686034,-49.011227"
"0.317139,-0.944946,0.000244,3.845215,-14.221190,-41.503902"
"0.271973,-0.835327,0.004272,6.103515,-12.695312,-43.640133"
"0.236816,-0.799072,-0.034912,5.615234,-9.521484,-54.138180"
"0.258057,-0.960327,-0.071777,-8.361816,-10.559081,-65.856934"
"0.280518,-1.077393,-0.081665,-17.578125,-14.526366,-62.133785"
"0.283447,-1.135742,-0.075928,-10.131835,-16.113281,-52.917477"
"0.223877,-0.980835,0.021973,10.253905,-17.883301,-36.804199"
"0.196899,-0.895752,0.061646,15.075683,-11.413573,-38.085937"
"0.167969,-0.837158,0.010742,-1.342773,-2.075195,-51.696774"
"0.167847,-0.929687,-0.075562,-7.873535,-2.990722,-57.189938"
"0.233521,-1.194946,-0.094849,-23.498533,-8.056641,-59.020992"
"0.249878,-1.264160,-0.093506,-2.807617,-11.474608,-36.682129"
"0.198608,-1.072754,0.008545,29.968260,-12.512206,-14.282226"
"0.125854,-0.846680,0.078491,26.550291,-8.056641,-14.099120"
"0.098267,-0.854980,-0.018066,0.671387,3.051758,-28.137205"
"0.100830,-0.899902,-0.053955,-0.305176,3.906250,-41.137691"
"0.118408,-0.994263,-0.080444,-0.610352,0.732422,-42.175289"
"0.141357,-1.117065,-0.124634,-10.375976,-3.662109,-37.231445"
"0.135254,-1.121948,-0.125610,8.605957,-8.422852,-25.085447"
"0.090698,-0.934692,-0.011719,26.550291,-9.460449,-21.240232"
"0.052612,-0.827759,0.010620,16.479492,-6.652832,-26.611326"
"0.039673,-0.867310,-0.073730,-5.310058,-3.662109,-39.672852"
"0.034302,-0.883179,-0.083374,-1.037598,-6.652832,-47.851559"
"0.040894,-0.975464,-0.100952,-3.601074,-7.690429,-51.025387"
"0.040161,-1.043213,-0.108032,-11.108397,-11.108397,-50.781246"
"0.023437,-1.012573,-0.076538,10.925292,-15.624999,-44.677731"
"-0.033203,-0.839600,-0.025391,15.930175,-14.526366,-51.269527"
"-0.048340,-0.856079,-0.034058,7.690429,-12.817382,-59.692379"
"-0.059937,-0.969849,-0.058594,-6.286621,-12.207030,-69.641113"
"-0.041992,-1.094971,-0.060303,-35.522461,-12.756347,-70.556641"
"-0.022095,-1.264771,-0.001465,-2.441406,-11.596679,-49.316402"
"-0.073730,-1.073608,-0.014282,16.967773,-9.399414,-37.353516"
"-0.132935,-0.937866,-0.023437,19.470215,-7.446289,-31.799314"
"-0.145020,-0.905396,-0.018311,19.470215,-6.469726,-38.574219"
"-0.141479,-0.949829,-0.020386,1.770019,-3.356933,-45.471188"
"-0.107788,-1.118286,-0.070557,-6.958007,-1.770019,-45.593258"
"-0.094604,-1.188110,-0.108032,-10.192870,-2.319336,-32.897949"
"-0.110962,-1.121826,-0.083862,9.704590,-7.324218,-14.465331"
"-0.169067,-0.928833,-0.001465,10.498046,-5.981445,-12.573241"
"-0.198364,-0.841553,-0.020264,4.516602,-2.868652,-17.517090"
"-0.200073,-0.847656,-0.062744,2.319336,-0.183105,-29.541014"
"-0.177246,-0.943359,-0.123413,-5.615234,-3.967285,-36.071777"
"-0.119263,-1.166626,-0.148682,-10.803222,-6.164550,-34.057617"
"-0.109009,-1.238159,-0.046997,-9.094238,-11.352538,-14.953612"
"-0.165039,-1.078857,0.041504,10.192870,-8.239746,7.751464"
"-0.189087,-1.014404,0.031738,4.394531,2.258301,14.892577"
"-0.186523,-1.032104,-0.050293,-6.896972,6.469726,16.357422"
"-0.171753,-1.051758,-0.110596,-4.943848,5.187988,18.310547"
"-0.142578,-1.116333,-0.098511,-3.051758,1.281738,23.498533"
"-0.118164,-1.199219,-0.079834,-10.498046,-0.305176,35.766602"
"-0.093994,-1.287231,-0.034790,-2.258301,1.037598,60.424801"
"-0.127808,-1.137939,0.019165,6.103515,3.417969,72.326660"
"-0.160034,-0.909424,-0.000854,13.977050,10.498046,81.420891"
"-0.143677,-0.899170,-0.025513,-8.239746,15.014647,71.350098"
""
"0.547485,-0.778809,0.000244,-7.141113,-8.972168,-14.282226"
"0.542114,-0.782715,-0.017334,-1.098633,-4.882812,-16.601562"
"0.537842,-0.782227,-0.041016,4.638672,-4.089355,-19.226074"
"0.520752,-0.758301,-0.071899,4.943848,-7.385253,-23.803709"
"0.510864,-0.780396,-0.087891,4.089355,-10.986327,-29.663084"
"0.502563,-0.805054,-0.028564,6.591796,-13.549804,-31.494139"
"0.516724,-0.868286,0.024414,0.000000,-12.329101,-33.630371"
"0.518066,-0.884155,0.028442,-1.892090,-6.225585,-30.517576"
"0.490479,-0.817749,0.003662,3.173828,-1.892090,-29.541014"
"0.467773,-0.814941,-0.058228,2.563476,-0.854492,-32.409668"
"0.465942,-0.854248,-0.072144,6.652832,-5.615234,-36.743164"
"0.460571,-0.853882,-0.063599,13.427733,-12.145995,-36.560059"
"0.448730,-0.859619,-0.019409,10.803222,-13.854980,-36.682129"
"0.447754,-0.906738,0.041748,3.784179,-13.000487,-37.109375"
"0.431152,-0.894287,0.017822,-0.061035,-6.286621,-34.667969"
"0.418945,-0.869873,-0.012573,-1.403808,-3.295898,-34.423828"
"0.405884,-0.871948,-0.045898,-2.624511,-4.333496,-35.949707"
"0.390869,-0.861084,-0.038818,3.479004,-7.629394,-38.085937"
"0.381226,-0.854614,-0.053589,3.173828,-9.460449,-40.954586"
"0.359131,-0.842529,-0.059448,4.943848,-12.817382,-45.593258"
"0.360474,-0.906372,-0.024292,1.220703,-14.160155,-48.339840"
"0.368408,-0.984253,0.023071,-7.507324,-14.221190,-48.645016"
"0.360474,-0.973999,0.024170,-3.295898,-9.704590,-43.212887"
"0.320801,-0.891235,0.029541,-2.929687,-6.286621,-43.334957"
"0.284668,-0.836914,0.015015,1.831055,-4.272461,-46.203609"
"0.258789,-0.857666,-0.071167,4.150391,-1.770019,-55.053707"
"0.262695,-0.925293,-0.091675,-5.249023,-8.056641,-61.523434"
"0.288574,-1.071899,-0.069946,-4.211426,-12.207030,-59.631344"
"0.268921,-1.020264,-0.005005,16.296387,-16.784668,-47.607418"
"0.244629,-0.944946,0.030884,21.667479,-15.686034,-42.175289"
"0.203003,-0.866455,0.055298,10.681151,-8.789063,-49.438473"
"0.185913,-0.850708,0.017212,10.559081,-2.990722,-55.847164"
"0.222778,-1.118164,-0.135010,-12.084960,1.281738,-66.955566"
"0.249634,-1.245361,-0.115234,-10.375976,-14.587401,-46.874996"
"0.231201,-1.156860,-0.000488,21.728514,-13.977050,-20.141600"
"0.158936,-0.919678,0.034790,27.832029,-9.643555,-16.784668"
"0.111816,-0.839966,-0.022217,12.939452,-2.807617,-24.353025"
"0.107910,-0.859741,-0.071899,2.624511,-2.380371,-36.743164"
"0.110840,-0.913818,-0.085815,4.760742,-5.798339,-40.832516"
"0.136963,-1.029785,-0.055420,-3.784179,-10.864257,-45.532223"
"0.151367,-1.080322,-0.038696,-0.061035,-11.352538,-40.710445"
"0.139282,-1.042725,-0.020874,10.437011,-9.704590,-30.822752"
"0.088013,-0.935059,-0.011475,12.451171,-8.728027,-28.991697"
"0.033813,-0.848389,-0.000122,13.732909,-7.019042,-32.775879"
"0.022217,-0.824585,0.002075,11.901855,-3.479004,-45.166012"
"0.033691,-0.906982,-0.047241,-12.207030,-0.549316,-57.128902"
"0.057007,-1.058716,-0.099487,-17.944336,-2.014160,-57.678219"
"0.058716,-1.137329,-0.073364,-19.592285,-7.751464,-49.926754"
"0.047974,-1.124512,-0.049072,10.375976,-11.047362,-35.766602"
"-0.014893,-0.967407,0.001099,20.568846,-10.070800,-31.311033"
"-0.050537,-0.903931,-0.004150,16.357422,-6.896972,-35.095215"
"-0.057861,-0.906128,-0.050537,6.103515,-2.868652,-44.128414"
"-0.053955,-0.941284,-0.066406,-5.432128,-3.601074,-51.452633"
"-0.026733,-1.103516,-0.088379,-9.826660,-5.920410,-48.400875"
"-0.038208,-1.119995,-0.078735,-0.915527,-8.239746,-40.710445"
"-0.083374,-0.979004,-0.025269,14.038085,-11.535644,-28.442381"
"-0.096802,-0.939209,-0.001221,13.916015,-8.178711,-30.273436"
"-0.109863,-0.913574,-0.025024,11.474608,-5.187988,-32.836914"
"-0.101196,-0.938477,-0.055298,8.911133,-2.990722,-38.574219"
"-0.077393,-1.063843,-0.088501,-2.258301,-2.685547,-41.931149"
"-0.074219,-1.105469,-0.113525,1.159668,-4.272461,-33.203125"
"-0.106812,-1.035522,-0.101563,8.666992,-7.141113,-26.855467"
"-0.146973,-0.932617,-0.021118,16.662598,-10.681151,-22.094725"
"-0.150635,-0.938599,-0.010498,1.525879,-4.821777,-25.878904"
"-0.128784,-1.049072,-0.056030,-5.676269,-0.671387,-24.414061"
"-0.112671,-1.119873,-0.105713,-3.967285,-1.342773,-19.775391"
"-0.108154,-1.155396,-0.103394,-1.403808,-4.516602,-7.263183"
"-0.114868,-1.143188,-0.069580,11.779784,-6.408691,7.019042"
"-0.170776,-0.972412,-0.010254,17.883301,-2.929687,14.221190"
"-0.170532,-0.935547,-0.023437,7.690429,1.220703,12.145995"
"-0.139160,-1.020874,-0.108154,-8.422852,6.164550,8.850098"
"-0.121704,-1.058472,-0.119507,-8.972168,1.647949,12.695312"
"-0.102539,-1.098999,-0.096191,-4.699707,-1.647949,21.301268"
"-0.091187,-1.147217,-0.056641,-6.591796,-0.976562,26.672361"
"-0.102539,-1.117798,-0.046753,-2.014160,2.929687,40.527340"
"-0.117676,-1.049805,-0.035645,9.216309,4.272461,51.025387"
"-0.111938,-0.983276,-0.030762,-5.981445,8.300781,50.231930"
"-0.079590,-1.029297,-0.069458,-13.183593,10.009766,50.231930"
"-0.064819,-1.042969,-0.075439,-14.831542,10.009766,55.053707"
"-0.038330,-1.044800,-0.065308,-12.023925,10.620116,61.096188"
"-0.026489,-1.018188,-0.068481,-11.474608,11.413573,63.598629"
"-0.014648,-1.007446,-0.107544,-10.314940,11.535644,66.284180"
"-0.005859,-1.021973,-0.105957,3.784179,5.554199,66.589355"
"0.024536,-1.054565,-0.033936,15.441894,2.868652,70.922852"
"0.050781,-1.063354,0.010986,11.230468,4.882812,74.157715"
"0.072998,-1.067749,0.011963,-5.432128,11.413573,80.505363"
"0.095703,-1.093872,-0.002930,-25.085447,18.127441,86.608879"
"0.136353,-1.176758,-0.044678,-35.034180,20.446775,91.796867"
"0.128418,-1.122925,-0.004883,-33.569336,20.751951,107.788078"
"0.123047,-1.046875,0.012939,4.577637,23.437498,118.713371"
"0.130249,-0.932983,-0.031982,16.601562,25.634764,118.896477"
"0.185303,-0.962646,-0.048828,16.479492,24.536131,113.525383"
"0.237793,-0.965454,-0.107544,7.141113,21.240232,113.037102"
"0.256836,-0.930908,-0.153564,-5.798339,11.108397,114.746086"
"0.266846,-0.858521,-0.144775,-17.395020,3.112793,113.891594"
"0.284546,-0.773193,0.101807,-11.596679,-3.906250,105.224602"
"0.360596,-0.805908,0.055786,8.789063,19.470215,89.294426"
"0.377197,-0.792847,-0.014648,18.737793,28.686522,82.336418"
"0.409058,-0.757690,-0.102661,10.864257,22.399900,73.364258"
"0.449585,-0.809326,-0.196289,-6.408691,18.676758,68.054199"
"0.451538,-0.744873,-0.106445,-11.535644,6.347656,63.598629"
"0.446167,-0.665405,-0.034058,-14.770507,3.723144,54.870602"
"0.479736,-0.646484,0.007935,-25.329588,9.338379,45.104977"
"0.515137,-0.717285,-0.116699,-35.400391,18.615723,29.663084"
"0.521851,-0.711670,-0.132935,-20.263670,9.948730,23.986814"
"0.524780,-0.673340,-0.116089,-16.418457,1.220703,15.380858"
"0.536011,-0.697998,-0.072144,-14.831542,-1.831055,10.314940"
"0.549194,-0.736084,-0.035889,-13.793944,-3.967285,3.295898"
"0.551392,-0.741821,0.004517,-21.240232,-2.502441,-0.061035"
"0.557983,-0.739624,0.040039,-22.399900,1.220703,-1.464844"
"0.550903,-0.718140,-0.064087,-24.291990,8.300781,-4.089355"
"0.544678,-0.714600,-0.100708,-22.094725,3.479004,-8.972168"
"0.530029,-0.694702,-0.096313,-4.760742,-4.455566,-17.150879"
"0.532837,-0.739136,-0.045044,-0.793457,-6.958007,-21.362303"
"0.526123,-0.778809,0.013916,5.737304,-8.850098,-25.512693"
"0.527222,-0.794556,0.020508,0.915527,-5.004883,-27.038572"
"0.534058,-0.852905,-0.018066,-0.732422,-2.868652,-26.855467"
"0.520142,-0.833374,-0.036011,4.272461,-3.662109,-23.010252"
"0.501343,-0.791748,-0.022583,12.023925,-6.835937,-22.338865"
"0.476685,-0.746216,0.020508,6.713867,0.732422,-31.188963"
"0.465088,-0.799072,-0.088867,2.990722,1.770019,-36.071777"
"0.463013,-0.866821,-0.054199,-1.159668,-8.056641,-39.428711"
"0.451782,-0.848267,-0.017700,5.737304,-10.681151,-37.292480"
"0.435791,-0.821533,-0.018921,4.272461,-8.178711,-38.879395"
"0.411255,-0.804321,-0.024536,0.061035,-7.507324,-44.311520"
"0.405884,-0.834717,-0.031494,-2.380371,-8.666992,-52.185055"
"0.405518,-0.874634,-0.044067,-7.385253,-11.047362,-56.701656"
"0.404785,-0.945801,-0.000977,-7.202148,-13.610839,-55.969234"
""
"-0.176514,-0.945557,0.027954,11.169433,4.821777,4.821777"
"-0.168457,-0.922241,-0.063965,5.432128,7.324218,0.610352"
"-0.148437,-0.938599,-0.124268,7.080078,4.821777,-0.671387"
"-0.120239,-1.003174,-0.104980,3.295898,-1.831055,-1.892090"
"-0.100220,-1.072388,-0.091675,-4.333496,-3.601074,1.770019"
"-0.120605,-1.039185,-0.053223,14.221190,-4.394531,11.840819"
"-0.155884,-0.920410,-0.004028,14.587401,-2.624511,12.084960"
"-0.141113,-0.961182,-0.065430,-1.770019,4.821777,6.042480"
"-0.121704,-1.023071,-0.105591,-13.061522,5.493164,5.126953"
"-0.079224,-1.174072,-0.131714,-14.953612,2.746582,8.850098"
"-0.065186,-1.241455,-0.078613,-9.155273,-3.540039,26.123045"
"-0.086426,-1.165405,-0.046631,2.380371,-2.807617,48.034664"
"-0.100708,-1.111816,-0.039185,8.300781,1.586914,61.767574"
"-0.104248,-1.051880,-0.015259,6.103515,2.868652,65.063477"
"-0.058105,-1.139160,-0.043091,-9.887695,5.432128,69.335937"
"-0.018555,-1.196899,-0.064331,-4.150391,4.943848,82.214348"
"0.001953,-1.217041,-0.053467,-14.953612,7.141113,97.534172"
"0.013306,-1.249023,-0.017944,-17.028809,10.925292,106.140129"
"0.003174,-1.141846,0.011719,2.868652,18.737793,126.770012"
"0.002197,-1.061890,0.014893,8.850098,23.010252,138.366699"
"0.037109,-0.964111,-0.015137,-2.685547,23.620604,135.925293"
"0.108521,-1.028687,-0.062500,-15.258788,22.827147,134.887695"
"0.138428,-1.026978,-0.012817,-20.690916,18.310547,139.709473"
"0.148804,-0.973267,0.038330,-10.864257,23.620604,143.432617"
"0.155029,-0.766846,0.024048,-3.784179,31.494139,140.441895"
"0.218384,-0.704712,-0.110596,10.559081,39.794922,121.215813"
"0.279419,-0.805420,-0.178589,-16.540527,31.433104,100.585930"
"0.338379,-0.896240,-0.198242,4.699707,12.451171,102.050774"
"0.347046,-0.785522,-0.155762,9.277344,4.638672,102.661125"
"0.387817,-0.769165,-0.031616,-3.295898,-2.502441,94.482414"
"0.411011,-0.773193,0.023193,-4.394531,5.126953,84.167473"
"0.438843,-0.692871,0.001587,1.831055,10.742187,79.101562"
"0.470337,-0.724243,-0.054077,-6.591796,15.319823,64.819336"
"0.486206,-0.750732,-0.096802,-6.469726,14.648437,55.297848"
"0.521851,-0.791748,-0.184814,-3.173828,6.408691,52.185055"
"0.529053,-0.749878,-0.157104,-5.493164,-0.061035,51.574703"
"0.503418,-0.629395,0.003784,-6.469726,-8.544922,46.813961"
"0.501221,-0.574463,0.087646,-18.310547,1.159668,30.029295"
"0.558716,-0.666870,-0.040771,-29.907225,16.296387,13.183593"
"0.564209,-0.693970,-0.175537,-22.460936,11.596679,11.169433"
"0.566895,-0.708496,-0.128418,-15.624999,-4.516602,5.920410"
"0.596802,-0.809570,-0.024780,-6.896972,-5.310058,5.126953"
"0.584839,-0.735840,0.017090,-0.549316,-3.173828,7.568359"
"0.571533,-0.666260,-0.000977,-6.835937,3.234863,5.126953"
"0.571289,-0.672485,-0.042236,-20.935057,6.164550,-3.417969"
"0.570312,-0.693604,-0.087646,-21.301268,3.601074,-7.019042"
"0.582520,-0.735107,-0.065308,-7.080078,-3.356933,-13.366698"
"0.585083,-0.754883,-0.051270,8.728027,-6.164550,-15.930175"
"0.571167,-0.748169,0.001221,8.544922,-5.310058,-17.211914"
"0.557373,-0.744629,0.007935,4.516602,-2.319336,-19.042969"
"0.543091,-0.765015,-0.047974,-0.732422,2.563476,-24.047850"
"0.538330,-0.776611,-0.062866,-3.051758,1.403808,-29.418943"
"0.537720,-0.812378,-0.088501,-1.281738,-0.427246,-31.799314"
"0.527466,-0.809937,-0.025269,5.371093,-6.835937,-32.653809"
"0.514648,-0.782959,0.005249,2.746582,-5.187988,-33.203125"
"0.505005,-0.802368,-0.004028,-9.277344,-3.112793,-38.208008"
"0.513550,-0.870117,-0.040161,-9.704590,-3.112793,-38.024902"
"0.496216,-0.851807,-0.028076,2.258301,-6.042480,-33.203125"
"0.486450,-0.817993,-0.021729,11.657714,-5.371093,-33.996582"
"0.462158,-0.767944,-0.045288,6.713867,-4.943848,-39.978027"
"0.428101,-0.728638,-0.051514,3.356933,-6.713867,-44.128414"
"0.418945,-0.758667,-0.064575,-2.685547,-10.131835,-55.053707"
"0.421631,-0.811890,-0.077393,-11.169433,-13.671874,-62.438961"
"0.441162,-0.955933,-0.058472,-13.549804,-16.418457,-62.377926"
"0.442871,-1.001343,0.001465,-6.774902,-19.104004,-53.649899"
"0.421387,-0.949829,0.013794,5.004883,-17.150879,-43.273922"
"0.362061,-0.830811,0.031860,2.136230,-13.427733,-45.593258"
"0.320679,-0.784668,0.008789,-0.244141,-10.559081,-50.476070"
"0.298218,-0.833496,-0.085205,-4.577637,-8.972168,-61.584469"
"0.313110,-0.936279,-0.108765,-18.310547,-18.859863,-67.932129"
"0.371216,-1.197998,-0.046143,-7.995605,-28.137205,-53.649899"
"0.346924,-1.119751,0.094238,14.038085,-28.503416,-40.344234"
"0.277100,-0.878296,0.197144,32.531738,-18.676758,-26.977537"
"0.257080,-0.832275,0.155151,2.563476,2.746582,-36.499023"
"0.230957,-0.840088,-0.037720,-3.601074,6.713867,-47.912594"
"0.198853,-0.803955,-0.082520,5.310058,0.488281,-51.940914"
"0.203125,-0.892578,-0.077759,3.112793,-9.460449,-63.049313"
"0.221069,-1.002197,-0.075806,-8.300781,-14.221190,-67.687988"
"0.242187,-1.129150,-0.037109,11.779784,-18.676758,-54.382320"
"0.212158,-1.021606,0.033813,22.216795,-17.211914,-48.828121"
"0.159912,-0.920654,0.041504,8.544922,-15.075683,-44.006344"
"0.141357,-0.893311,0.046509,4.760742,-13.061522,-46.997066"
"0.106689,-0.857910,-0.012695,8.728027,-10.314940,-51.208492"
"0.083130,-0.891724,-0.026001,7.324218,-10.742187,-62.011715"
"0.090576,-0.940430,-0.043091,2.624511,-12.023925,-67.626953"
"0.087769,-1.001099,-0.084595,3.845215,-19.958496,-62.194820"
"0.071167,-0.976440,-0.024048,8.789063,-22.827147,-60.241695"
"0.030884,-0.936157,-0.018555,15.502929,-19.165039,-62.805172"
"0.018311,-0.927979,-0.035767,11.901855,-14.770507,-70.068359"
"-0.013550,-0.936768,-0.051514,7.873535,-15.380858,-73.303223"
"-0.049805,-0.960205,-0.049927,9.094238,-18.249512,-77.392578"
"-0.050659,-0.992920,-0.046387,9.460449,-19.531250,-78.979492"
"-0.050171,-1.087646,-0.058594,6.347656,-20.385740,-73.608398"
"-0.083862,-1.057251,-0.012817,15.014647,-21.972654,-68.847656"
"-0.100220,-1.013916,0.035522,25.512693,-20.080564,-63.659664"
"-0.106689,-1.031616,0.025513,6.408691,-10.437011,-63.476559"
"-0.112305,-1.118408,-0.004395,2.929687,-6.652832,-61.462399"
"-0.128174,-1.114136,-0.043213,7.629394,-2.868652,-49.438473"
"-0.144409,-1.082153,-0.062744,14.709472,-2.868652,-38.208008"
"-0.161255,-1.057373,-0.068970,12.329101,-4.272461,-32.043457"
"-0.166870,-1.056885,-0.067139,9.338379,-4.760742,-28.625486"
"-0.170532,-1.051025,-0.059326,8.239746,-5.676269,-21.240232"
"-0.172852,-1.045654,-0.049438,8.483887,-4.638672,-13.671874"
"-0.165894,-1.061523,-0.057129,7.507324,-2.258301,-10.925292"
"-0.161865,-1.084106,-0.082397,2.929687,1.403808,-4.577637"
"-0.162354,-1.074219,-0.097778,-0.793457,-0.488281,4.089355"
"-0.166992,-1.052856,-0.087524,1.770019,-3.234863,11.779784"
"-0.177002,-0.983032,-0.060181,3.295898,-3.356933,14.404296"
"-0.161377,-1.014038,-0.077026,-6.469726,0.305176,15.197753"
"-0.137817,-1.082520,-0.082031,-19.226074,2.807617,18.676758"
"-0.103027,-1.209839,-0.080566,-22.460936,2.502441,25.146482"
"-0.119873,-1.187256,-0.051025,-11.840819,0.244141,44.860836"
"-0.136230,-1.117676,-0.030151,2.868652,-0.854492,61.889645"
"-0.152588,-0.989990,-0.044312,-4.028320,3.601074,65.368652"
"-0.122559,-0.990479,-0.073242,-7.934570,4.943848,64.147949"
"-0.070068,-1.070313,-0.055908,-20.263670,4.943848,64.758301"
"-0.049805,-1.097778,-0.029419,-20.202635,5.798339,71.228027"
"-0.021973,-1.103271,0.025146,-17.883301,8.483887,75.500488"
"-0.001099,-1.135254,0.034546,-19.897461,17.211914,83.557121"
"-0.007202,-1.107666,0.024170,11.901855,19.897461,96.923820"
"-0.021606,-0.953003,0.016479,11.169433,20.446775,100.891106"
"0.007813,-0.931030,-0.009521,-6.774902,23.620604,96.862785"
"0.072021,-1.006958,-0.080322,-24.536131,29.418943,90.393059"
"0.105957,-1.042969,-0.109863,-25.695799,26.062010,92.773430"
"0.146240,-1.069702,-0.084839,-28.930662,22.033689,96.191399"
"0.173828,-1.114258,-0.034058,-18.493652,17.211914,103.881828"
"0.159424,-1.057861,0.001343,28.991697,14.648437,117.065422"
"0.133423,-0.787231,0.067017,47.912594,15.747069,118.591301"
""
"0.523315,-0.795898,-0.056519,-5.554199,-1.892090,-30.700682"
"0.533569,-0.874390,-0.035522,-0.671387,-10.131835,-29.907225"
"0.536011,-0.888916,0.019653,4.699707,-12.573241,-26.855467"
"0.508911,-0.807007,0.077393,12.817382,-12.512206,-22.033689"
"0.480103,-0.739624,0.086182,5.920410,-5.249023,-25.329588"
"0.470215,-0.723267,0.066650,-4.699707,1.098633,-34.484863"
"0.458252,-0.729492,-0.021729,-6.103515,1.831055,-39.672852"
"0.457642,-0.808350,-0.082764,-5.981445,-4.272461,-48.400875"
"0.461548,-0.854614,-0.064697,0.610352,-15.686034,-49.987789"
"0.460571,-0.896118,0.034546,10.314940,-19.165039,-46.203609"
"0.443604,-0.877930,0.096680,11.291503,-16.174316,-44.616695"
"0.397827,-0.808716,0.074341,5.859375,-7.263183,-44.799801"
"0.374878,-0.788696,0.039673,-4.455566,-2.685547,-53.161617"
"0.351929,-0.823364,-0.038574,-7.507324,-6.652832,-64.025879"
"0.363892,-0.960937,-0.040649,-9.582520,-11.718749,-66.650391"
"0.353760,-1.000488,0.035645,2.197266,-20.263670,-61.096188"
"0.344849,-0.977417,0.070679,20.324705,-18.066406,-53.588863"
"0.324829,-0.940186,0.105591,20.324705,-14.282226,-52.246090"
"0.304565,-0.930542,0.108154,7.629394,-7.202148,-51.757809"
"0.293701,-0.934082,0.078613,0.366211,-0.732422,-53.283688"
"0.255249,-0.916260,0.003418,4.821777,-2.258301,-55.358883"
"0.263062,-0.972290,0.016846,1.098633,-4.516602,-57.006832"
"0.244019,-1.037109,-0.031006,0.549316,-2.136230,-59.082027"
"0.238403,-1.042603,-0.016357,17.150879,-13.549804,-47.180172"
"0.231689,-0.979980,0.066162,22.033689,-15.258788,-40.466305"
"0.196899,-0.894409,0.045776,20.324705,-7.324218,-39.306641"
"0.183594,-0.877686,0.015869,15.930175,-2.563476,-48.217770"
"0.133911,-0.817017,0.005371,23.193357,-4.943848,-57.861324"
"0.094727,-0.771118,-0.034180,22.766111,-5.676269,-64.453125"
"0.117432,-0.948364,-0.091431,1.220703,-9.094238,-80.749504"
"0.160278,-1.107056,-0.082031,-32.470703,-16.357422,-82.458488"
"0.163574,-1.273804,-0.012451,-33.813477,-19.287109,-72.387695"
"0.075806,-1.031738,0.092407,27.465818,-23.803709,-44.982906"
"0.041748,-0.912964,0.094238,30.944822,-11.962890,-44.067379"
"-0.006714,-0.862793,0.020630,3.479004,-3.784179,-58.349606"
"-0.031006,-0.869141,-0.000122,7.202148,-4.272461,-64.208984"
"-0.005859,-1.024902,-0.057983,-2.258301,-3.967285,-75.073242"
"0.025024,-1.172241,-0.064941,-31.188963,-5.920410,-72.509766"
"0.026978,-1.250244,-0.020508,8.544922,-11.535644,-46.569820"
"-0.036865,-1.034912,-0.007080,28.015135,-12.573241,-36.010742"
"-0.097412,-0.909424,0.033569,27.221678,-11.840819,-32.531738"
"-0.102539,-0.919067,0.031982,16.235352,-6.042480,-41.076656"
"-0.087524,-0.983154,-0.001465,-0.183105,0.427246,-49.072262"
"-0.036743,-1.184937,-0.065063,-7.446289,0.427246,-47.485348"
"-0.051025,-1.174316,-0.069580,6.530761,-4.821777,-29.296873"
"-0.068359,-1.111084,-0.038208,20.507811,-8.666992,-13.671874"
"-0.097168,-1.014038,-0.006836,10.925292,-5.187988,-8.605957"
"-0.119385,-0.973755,-0.022827,6.591796,-4.150391,-8.422852"
"-0.096924,-1.014160,-0.038574,-1.220703,-2.807617,-9.460449"
"-0.093750,-1.025024,-0.065552,-0.366211,-1.892090,-6.713867"
"-0.075562,-1.114258,-0.070190,-8.911133,-5.371093,-0.671387"
"-0.049927,-1.236084,-0.021362,-9.887695,-6.469726,6.835937"
"-0.087769,-1.116089,0.040894,3.234863,-5.798339,27.893064"
"-0.105713,-1.031616,0.047363,1.586914,1.647949,36.560059"
"-0.112305,-0.968018,-0.007324,-3.540039,5.493164,35.644531"
"-0.068726,-1.049683,-0.068726,-16.174316,7.263183,33.447266"
"-0.036743,-1.106079,-0.050293,-16.967773,2.319336,39.428711"
"-0.026367,-1.106812,-0.023560,-14.282226,0.000000,49.804684"
"-0.012085,-1.091797,0.019653,-15.502929,1.953125,54.626461"
"-0.021362,-1.011719,0.031372,-9.948730,7.141113,62.255856"
"-0.019897,-0.989136,0.037354,-15.502929,10.986327,62.927242"
"0.010132,-1.031128,0.025513,-25.085447,15.380858,62.133785"
"0.052979,-1.136108,-0.010620,-27.404783,16.479492,64.697266"
"0.077271,-1.151367,0.026001,-14.099120,14.587401,77.392578"
"0.079956,-1.106689,0.040649,-6.164550,15.624999,91.308586"
"0.091675,-1.053589,0.070679,-11.230468,17.944336,94.177238"
"0.107544,-1.007935,0.033936,-10.803222,24.230955,98.266594"
"0.118774,-0.980957,0.012207,-9.460449,23.498533,101.684563"
"0.171631,-1.019653,0.035767,-24.353025,21.972654,103.149406"
"0.223755,-1.090576,0.032104,-27.282713,23.620604,106.323235"
"0.225830,-1.008179,0.022095,-7.995605,26.123045,117.919914"
"0.220093,-0.926147,0.016724,22.827147,23.437498,122.619621"
"0.253662,-0.867920,0.008179,42.114254,20.446775,119.934074"
"0.285645,-0.795288,-0.022217,61.706539,14.892577,115.661613"
"0.301758,-0.766479,-0.019287,19.958496,14.160155,102.722160"
"0.373291,-0.833862,-0.016113,-9.094238,18.005371,90.881340"
"0.406250,-0.815918,-0.073486,-14.831542,18.310547,90.148918"
"0.418213,-0.732300,-0.078003,-16.235352,12.145995,85.571281"
"0.432007,-0.721558,-0.067261,-14.221190,6.042480,73.181152"
"0.480225,-0.780762,-0.034912,-15.136718,4.150391,67.321777"
"0.509766,-0.806885,0.095093,-4.394531,1.770019,61.767574"
"0.518921,-0.784180,0.120605,7.446289,13.244628,59.936520"
"0.535522,-0.737549,-0.005981,-0.976562,20.324705,57.739254"
"0.559326,-0.774902,-0.096802,-26.306150,18.798828,51.879879"
"0.567871,-0.788574,-0.079224,-24.963377,7.507324,51.147457"
"0.560059,-0.680542,-0.032349,-8.789063,3.845215,48.828121"
"0.568115,-0.623047,0.012085,-8.911133,3.723144,42.846676"
"0.612671,-0.741333,0.029053,-6.286621,5.981445,29.724119"
"0.633789,-0.799927,0.019897,0.549316,9.399414,29.357908"
"0.615356,-0.692383,-0.008667,6.774902,9.399414,32.897949"
"0.596069,-0.565796,-0.048706,2.258301,7.324218,27.526854"
"0.596924,-0.555786,-0.060913,-6.225585,3.234863,10.559081"
"0.588135,-0.525024,-0.062134,-5.310058,0.610352,2.197266"
"0.611450,-0.641968,-0.049927,-16.845703,-3.173828,-15.747069"
"0.667969,-0.875488,0.018555,-29.968260,-6.408691,-21.972654"
"0.677124,-0.908325,0.062500,-8.544922,-5.249023,-7.385253"
"0.635132,-0.715332,0.066040,4.821777,-1.647949,-0.305176"
"0.609619,-0.635742,-0.050171,2.502441,5.310058,-3.906250"
"0.608765,-0.663330,-0.081055,-4.333496,-0.122070,-14.953612"
"0.595703,-0.685303,-0.046509,1.281738,-7.507324,-22.094725"
"0.600464,-0.745361,-0.011353,-0.183105,-8.117676,-25.573729"
"0.612549,-0.813721,0.027832,-6.835937,-8.422852,-27.221678"
"0.606812,-0.803955,0.061401,-7.507324,-6.408691,-22.705076"
"0.578735,-0.720459,0.070557,-11.047362,-2.014160,-22.583006"
"0.570923,-0.707275,0.020508,-14.404296,4.028320,-29.235838"
"0.563965,-0.709717,-0.011597,-1.831055,2.014160,-35.461426"
"0.546021,-0.727539,-0.052979,3.295898,-5.065917,-42.114254"
"0.567749,-0.839478,-0.048950,2.868652,-8.911133,-44.799801"
"0.558472,-0.853882,0.046021,4.882812,-15.502929,-40.283199"
"0.538940,-0.798218,0.099487,7.812500,-12.756347,-36.193848"
"0.506226,-0.729736,0.114990,5.187988,-6.835937,-39.062500"
"0.492187,-0.774048,-0.014893,-1.708984,3.234863,-48.583981"
"0.484131,-0.845093,-0.050781,-0.427246,-4.028320,-53.405758"
"0.481201,-0.868042,-0.027588,5.920410,-15.197753,-52.246090"
"0.466187,-0.872314,0.028442,8.483887,-17.822266,-50.903316"
"0.442993,-0.854980,0.121094,11.718749,-17.761230,-49.499508"
"0.439453,-0.861938,0.133789,3.540039,-7.507324,-51.208492"
"0.417114,-0.860229,0.055908,-1.953125,-0.122070,-53.710934"
"0.391235,-0.857178,-0.024292,-2.319336,-0.976562,-55.969234"
"0.365601,-0.882568,-0.022583,-1.220703,-8.728027,-60.241695"
"0.366211,-0.920532,-0.012329,-2.319336,-14.343261,-62.744137"
"0.374756,-1.000977,-0.022095,6.469726,-17.578125,-57.067867"
"0.352417,-0.971191,0.049438,12.634276,-19.104004,-53.039547"
"0.351929,-0.981323,0.084473,5.737304,-14.831542,-49.438473"
"0.341553,-0.985596,0.090210,5.615234,-7.202148,-44.250484"
"0.301758,-0.904541,0.046997,6.286621,-5.310058,-42.968746"
"0.285522,-0.883545,0.013184,5.371093,-5.432128,-46.020504"
"0.261353,-0.857788,0.030029,2.441406,-3.356933,-54.992672"
""
"-0.018677,-1.261353,-0.037476,-6.286621,-4.211426,-2.624511"
"-0.039063,-1.205688,0.008911,14.221190,-8.483887,20.812986"
"-0.092407,-1.034912,0.115723,17.822266,-7.263183,26.855467"
"-0.094116,-0.980347,0.117310,10.437011,2.990722,27.465818"
"-0.042358,-1.165039,-0.025879,-22.216795,14.831542,25.329588"
"-0.014771,-1.242554,-0.069092,-20.324705,11.108397,40.710445"
"0.004272,-1.256836,0.002441,-11.962890,5.981445,52.551266"
"-0.002563,-1.184204,0.082153,-3.540039,7.202148,73.364258"
"-0.035156,-1.008789,0.057861,5.310058,17.578125,87.158195"
"-0.028809,-0.956055,0.040894,-2.807617,20.812986,86.059563"
"0.028198,-1.033936,0.024292,-13.549804,20.935057,83.374016"
"0.105957,-1.178589,0.039551,-23.559568,21.118162,87.402336"
"0.139160,-1.265137,0.050903,-43.334957,25.268553,103.515617"
"0.132202,-1.228271,0.064209,-31.249998,28.137205,116.577141"
"0.088013,-0.939575,0.023804,15.014647,31.433104,136.840820"
"0.103027,-0.880005,-0.020630,18.859863,30.090330,133.056641"
"0.154785,-0.864868,-0.078857,11.779784,17.822266,125.061028"
"0.194214,-0.820312,0.070923,11.718749,14.038085,119.506828"
"0.340210,-1.094604,0.077637,-18.371582,25.878904,106.079094"
"0.345459,-1.107910,0.084106,-7.141113,34.362793,120.300285"
"0.265381,-0.716064,0.075806,22.521971,34.729004,127.746574"
"0.328735,-0.649536,-0.182007,17.822266,38.269043,109.436028"
"0.381836,-0.790161,-0.268188,-24.841307,20.507811,85.937492"
"0.428711,-0.884644,-0.085449,-9.765625,4.028320,87.097160"
"0.412842,-0.643555,0.133545,36.743164,-4.577637,91.125481"
"0.427124,-0.592896,0.119873,16.540527,18.371582,69.946289"
"0.511230,-0.757935,-0.068481,-4.638672,25.878904,58.776852"
"0.535156,-0.797607,-0.132568,-21.484373,18.005371,54.565426"
"0.542358,-0.789062,-0.096436,-26.794432,5.371093,53.588863"
"0.550903,-0.772583,-0.044312,-28.503416,1.708984,52.551266"
"0.540894,-0.675659,0.098877,-22.644041,1.464844,50.659176"
"0.558594,-0.653564,0.022461,-1.159668,12.939452,39.489746"
"0.576294,-0.701294,-0.072754,-8.178711,16.357422,28.503416"
"0.610474,-0.778809,-0.100830,-9.582520,10.009766,27.099607"
"0.633667,-0.822021,0.007935,-20.629881,-1.403808,29.479979"
"0.628662,-0.791626,0.042114,-22.583006,-0.610352,35.400391"
"0.600708,-0.650879,0.087280,-14.038085,6.774902,31.127928"
"0.602905,-0.600952,0.045776,-1.525879,12.145995,24.108885"
"0.620483,-0.646118,-0.093750,13.671874,16.113281,11.474608"
"0.636353,-0.693481,-0.109863,2.075195,5.126953,4.882812"
"0.668213,-0.838257,-0.035034,-7.202148,0.244141,5.310058"
"0.657227,-0.765991,0.065186,0.915527,-1.892090,15.686034"
"0.629272,-0.635376,0.087646,2.380371,5.737304,18.981934"
"0.607300,-0.510498,0.010010,-4.150391,10.864257,10.986327"
"0.627319,-0.587524,-0.132935,0.122070,12.268065,-9.155273"
"0.620850,-0.593628,-0.136719,12.023925,-2.197266,-19.104004"
"0.625732,-0.663574,-0.077026,-3.295898,-10.498046,-27.893064"
"0.653564,-0.813965,-0.012207,-7.446289,-11.657714,-27.832029"
"0.636230,-0.750122,0.037598,-0.549316,-9.704590,-18.310547"
"0.606567,-0.645142,0.042603,-3.723144,-4.577637,-18.188477"
"0.598877,-0.659302,0.009033,-23.742674,-0.183105,-29.357908"
"0.597778,-0.730835,-0.091309,-21.118162,-1.037598,-34.240723"
"0.581177,-0.731201,-0.063843,2.929687,-10.864257,-39.733887"
"0.568115,-0.720093,-0.044434,13.061522,-17.089844,-45.532223"
"0.548706,-0.711304,0.028809,7.751464,-16.418457,-54.077145"
"0.537598,-0.750488,0.087158,-1.098633,-11.962890,-58.776852"
"0.552856,-0.853516,0.003418,-5.249023,-3.967285,-61.218258"
"0.551514,-0.872192,-0.004272,-2.380371,-9.277344,-53.161617"
"0.540283,-0.869141,0.013916,-5.004883,-8.972168,-46.264645"
"0.483276,-0.767700,0.005249,-1.831055,-9.643555,-44.921871"
"0.446533,-0.725342,-0.019043,8.117676,-11.230468,-51.879879"
"0.441895,-0.765747,-0.025024,-3.784179,-15.258788,-64.025879"
"0.461304,-0.906128,0.003906,-12.023925,-18.676758,-66.223145"
"0.452393,-0.959839,0.085083,-19.287109,-21.240232,-60.668941"
"0.444946,-0.956055,0.108154,-0.732422,-14.160155,-53.283688"
"0.400635,-0.841675,0.131714,15.686034,-6.408691,-52.307125"
"0.354858,-0.735718,0.052612,14.953612,-1.037598,-58.105465"
"0.312988,-0.761230,-0.067383,6.347656,-2.990722,-73.486328"
"0.322388,-0.936523,-0.057861,-15.502929,-17.150879,-84.899895"
"0.342041,-1.058228,-0.030518,-14.160155,-24.353025,-81.603996"
"0.358765,-1.167236,0.031616,7.324218,-25.695799,-60.241695"
"0.312744,-1.032593,0.191650,19.104004,-23.559568,-49.621578"
"0.261963,-0.863525,0.176147,21.972654,-6.042480,-44.128414"
"0.250610,-0.887695,0.092773,-7.995605,9.887695,-57.678219"
"0.232666,-1.019775,-0.088135,-8.850098,7.263183,-59.448238"
"0.214355,-0.945557,0.019531,19.409180,-13.122558,-49.865719"
"0.210815,-0.937988,0.023682,19.409180,-9.704590,-51.696774"
"0.206909,-1.009644,-0.013428,18.493652,-10.375976,-52.368160"
"0.186646,-0.950684,0.059082,24.658201,-11.962890,-49.865719"
"0.154419,-0.891235,0.076416,17.700195,-8.239746,-51.330563"
"0.143921,-0.894043,0.046387,7.568359,-2.197266,-57.434078"
"0.127808,-0.927856,-0.017700,5.920410,-1.892090,-60.241695"
"0.132690,-1.045410,-0.058960,-2.624511,-6.042480,-64.208984"
"0.138550,-1.095215,-0.062378,-1.220703,-11.108397,-57.495113"
"0.102661,-1.023193,-0.027222,11.291503,-16.662598,-47.729488"
"0.042969,-0.880249,0.058838,14.343261,-16.723633,-48.339840"
"0.011719,-0.868652,0.046021,11.718749,-9.277344,-59.204098"
"0.017822,-0.921997,0.003418,5.615234,-4.699707,-69.213867"
"0.015991,-0.987915,-0.031128,-4.943848,-9.277344,-70.007324"
"0.015015,-1.052856,-0.041992,-9.094238,-10.131835,-69.335937"
"-0.035522,-1.006714,0.005127,-12.451171,-12.573241,-64.758301"
"-0.068359,-0.935181,0.045898,18.676758,-14.770507,-63.171383"
"-0.107666,-0.838501,0.037842,21.240232,-12.634276,-67.993164"
"-0.143066,-0.832153,-0.045898,-0.854492,-10.314940,-80.139160"
"-0.140137,-0.943726,-0.060425,-7.873535,-17.089844,-91.003410"
"-0.118042,-1.071167,-0.091553,-23.498533,-19.348145,-91.918938"
"-0.065430,-1.396484,-0.080200,-35.217285,-22.338865,-83.618156"
"-0.111816,-1.267090,0.153564,1.403808,-28.076170,-46.142574"
"-0.158569,-1.096069,0.216675,21.606443,-13.244628,-24.780272"
"-0.221924,-0.948242,0.112793,3.601074,2.746582,-29.113768"
"-0.231201,-0.953735,-0.022949,2.807617,4.211426,-31.555174"
"-0.228760,-0.948975,-0.052734,14.709472,0.915527,-33.752441"
"-0.231323,-0.935913,-0.083008,19.592285,-4.943848,-33.935547"
"-0.231689,-0.911255,-0.043457,21.728514,-6.774902,-33.935547"
"-0.243286,-0.852539,-0.032837,16.052246,-9.155273,-36.437988"
"-0.263916,-0.814819,-0.013184,8.178711,-12.084960,-43.640133"
"-0.269287,-0.834839,-0.017822,5.981445,-10.498046,-53.833004"
"-0.275879,-0.892090,-0.041382,8.605957,-8.972168,-57.495113"
"-0.283691,-0.920166,-0.090942,8.911133,-9.277344,-61.401363"
"-0.299438,-0.952393,-0.063477,5.920410,-14.221190,-61.279293"
"-0.311157,-0.969727,-0.069458,1.098633,-14.160155,-58.410641"
"-0.317871,-1.047119,-0.047852,-9.765625,-15.258788,-56.518551"
"-0.320068,-1.170166,0.020996,-26.306150,-14.465331,-47.607418"
"-0.329346,-1.178833,0.029053,-6.347656,-8.911133,-26.855467"
"-0.367188,-1.083008,0.031372,5.859375,-3.601074,-10.009766"
"-0.399902,-0.949585,0.014526,7.995605,-0.366211,-6.286621"
"-0.393066,-0.927856,-0.047241,5.981445,4.028320,-3.906250"
"-0.380737,-0.946777,-0.066040,7.324218,1.953125,-1.892090"
"-0.351074,-1.012695,-0.088501,9.094238,-1.037598,5.187988"
"-0.329346,-1.073486,-0.037476,10.803222,-2.563476,11.108397"
"-0.345703,-1.013550,0.047607,15.136718,-1.342773,24.902342"
"-0.357544,-0.952637,0.041138,9.521484,8.178711,31.066893"
"-0.364258,-0.902344,-0.070923,7.202148,12.329101,29.968260"
"-0.346924,-0.926636,-0.118530,5.615234,9.948730,27.160643"
"-0.325684,-0.974609,-0.116333,-7.202148,3.234863,28.564451"
"-0.275513,-1.121948,-0.110840,-15.136718,-0.488281,39.733887"
"-0.239258,-1.263306,-0.084961,-16.479492,-1.220703,49.743649"
"-0.270752,-1.187012,-0.036743,-1.770019,-1.708984,76.232910"
""
"0.524780,-0.576416,-0.008057,-13.305663,22.521971,69.519043"
"0.562378,-0.685913,-0.167114,-1.342773,22.277830,48.889156"
"0.601685,-0.725220,-0.078003,18.249512,4.516602,42.419430"
"0.615234,-0.719604,0.024048,-1.770019,1.159668,38.940430"
"0.606812,-0.668335,0.049561,-16.418457,6.896972,37.170410"
"0.596313,-0.541870,0.025879,-25.817869,17.395020,24.841307"
"0.581787,-0.425049,-0.133911,-19.714355,18.676758,14.831542"
"0.576538,-0.405396,-0.194946,-2.197266,7.995605,-12.878417"
"0.586914,-0.509766,-0.166016,-8.056641,-7.873535,-41.931149"
"0.628784,-0.783813,-0.053589,-7.690429,-12.878417,-47.485348"
"0.633179,-0.787354,0.073608,1.220703,-12.084960,-40.954586"
"0.600220,-0.686768,-0.019775,1.708984,1.403808,-35.461426"
"0.585083,-0.668579,-0.098022,-5.493164,4.333496,-41.748043"
"0.557739,-0.679443,-0.152710,-11.108397,-1.403808,-44.860836"
"0.520630,-0.671997,-0.079956,-7.751464,-14.831542,-52.124020"
"0.546387,-0.856201,0.007813,-15.258788,-17.578125,-63.293453"
"0.554932,-0.919800,0.032959,-10.375976,-13.610839,-56.884762"
"0.547241,-0.921509,0.016968,2.319336,-9.460449,-44.189449"
"0.506470,-0.813110,0.017700,5.249023,-9.155273,-40.222164"
"0.472168,-0.715576,0.026489,9.887695,-5.615234,-43.884274"
"0.449341,-0.689087,-0.038574,16.052246,-2.075195,-57.312008"
"0.411987,-0.690186,-0.104858,15.991210,-6.652832,-65.307617"
"0.475464,-1.020142,-0.064819,-8.300781,-15.258788,-78.369141"
"0.489624,-1.113525,-0.003418,-12.145995,-17.578125,-62.133785"
"0.456177,-1.003784,0.154907,12.023925,-8.178711,-42.114254"
"0.395386,-0.803711,0.044678,12.878417,-0.305176,-40.405270"
"0.326660,-0.680298,-0.027466,3.417969,1.953125,-51.147457"
"0.299316,-0.764893,-0.111450,-24.963377,-8.666992,-81.237785"
"0.366699,-1.155884,-0.137939,-33.630371,-15.014647,-82.824699"
"0.372070,-1.200073,0.064087,-17.517090,-28.076170,-59.570309"
"0.345825,-1.067749,0.205078,19.653320,-19.226074,-37.841797"
"0.266846,-0.844116,0.130859,-1.525879,0.366211,-44.921871"
"0.222534,-0.807007,-0.000122,-8.728027,-1.159668,-48.950191"
"0.177246,-0.706177,-0.035767,10.314940,-6.347656,-60.974117"
"0.169922,-0.744385,-0.079712,0.671387,-9.765625,-84.411613"
"0.231201,-1.079590,-0.127930,-20.141600,-21.118162,-88.500969"
"0.264282,-1.248901,0.019043,-21.423338,-27.099607,-77.453613"
"0.212402,-1.064331,0.189209,14.831542,-26.489256,-49.682613"
"0.167847,-0.946533,0.197632,19.348145,-9.643555,-42.541500"
"0.115845,-0.868042,0.067383,10.009766,-1.220703,-47.607418"
"0.096680,-0.920410,-0.077881,-1.403808,1.281738,-59.265133"
"0.140015,-1.150146,-0.096558,-11.108397,-9.643555,-64.208984"
"0.173584,-1.288330,-0.069824,-8.666992,-18.310547,-48.095699"
"0.151001,-1.194458,0.101440,8.422852,-20.935057,-31.799314"
"0.070068,-0.899902,0.173340,20.080564,-11.962890,-15.014647"
"0.040527,-0.851318,0.123047,1.403808,2.990722,-24.780272"
"0.018433,-0.843140,-0.023193,0.427246,3.234863,-39.062500"
"0.010620,-0.872681,-0.091919,0.549316,-1.342773,-44.555660"
"0.036011,-0.990845,-0.085205,1.892090,-12.084960,-52.001949"
"0.051270,-1.045898,-0.042480,12.817382,-19.104004,-49.438473"
"0.047241,-1.025146,0.042114,9.155273,-17.211914,-42.236324"
"0.000244,-0.922119,0.076538,-4.089355,-14.953612,-42.297359"
"-0.036621,-0.907837,0.018066,-14.038085,-8.972168,-48.583981"
"-0.054565,-0.875854,-0.028564,7.507324,-9.765625,-54.809566"
"-0.078247,-0.860840,-0.055786,7.995605,-15.747069,-64.514160"
"-0.073975,-0.953125,-0.043335,0.183105,-16.540527,-68.786621"
"-0.064941,-1.067261,-0.050903,1.647949,-18.981934,-68.542480"
"-0.071655,-1.075562,-0.037598,-0.366211,-24.230955,-59.143063"
"-0.088257,-1.120483,0.032104,-16.052246,-24.841307,-55.969234"
"-0.133423,-1.071411,0.101074,-5.065917,-22.399900,-45.715328"
"-0.180054,-0.960815,0.046265,13.061522,-11.840819,-39.245605"
"-0.202637,-0.929810,-0.004761,13.488769,-6.958007,-43.334957"
"-0.217773,-0.865967,-0.015991,16.845703,-9.033203,-46.874996"
"-0.212524,-0.857788,-0.015259,18.981934,-10.925292,-56.030270"
"-0.214478,-0.865967,-0.031982,15.747069,-11.901855,-62.744137"
"-0.226074,-0.892700,-0.061401,6.958007,-17.028809,-66.223145"
"-0.195435,-1.058838,-0.041382,-5.310058,-19.165039,-67.199707"
"-0.202393,-1.188354,0.014893,-28.808592,-20.996092,-58.105465"
"-0.227173,-1.156982,0.057861,-1.342773,-19.470215,-37.719727"
"-0.276611,-1.037842,0.075684,6.164550,-9.033203,-27.099607"
"-0.300781,-0.980347,0.018066,6.042480,-4.394531,-26.733397"
"-0.295776,-0.990967,-0.021362,6.347656,-0.366211,-27.160643"
"-0.296631,-0.981934,-0.032959,10.559081,-0.854492,-23.132322"
"-0.296143,-0.973511,-0.072266,11.535644,-1.586914,-21.301268"
"-0.293823,-0.996460,-0.065796,7.385253,-5.554199,-16.906738"
"-0.315430,-0.927734,0.014038,7.507324,-10.009766,-9.582520"
"-0.319702,-0.906494,0.032104,2.136230,-5.065917,-9.155273"
"-0.302124,-0.990845,-0.024414,-3.479004,-0.549316,-10.192870"
"-0.265381,-1.161621,-0.064209,-10.131835,2.441406,-4.821777"
"-0.275513,-1.180298,-0.011841,-2.746582,-0.976562,14.587401"
"-0.290527,-1.152710,0.012695,8.117676,0.854492,33.081055"
"-0.316528,-1.025879,0.019287,15.075683,3.479004,38.940430"
"-0.304199,-0.991211,-0.036865,15.502929,8.911133,42.175289"
"-0.290771,-1.010132,-0.064331,0.000000,8.972168,44.982906"
"-0.258545,-1.047119,-0.063110,0.427246,4.882812,52.001949"
"-0.233643,-1.052124,-0.021973,-1.159668,5.065917,56.152340"
"-0.213379,-1.062988,-0.022339,-8.605957,10.742187,63.659664"
"-0.213623,-1.051636,-0.032349,-7.446289,13.488769,71.533203"
"-0.197998,-1.051025,-0.035034,-9.460449,13.000487,73.791504"
"-0.158081,-1.154297,-0.018433,-19.226074,13.305663,79.223633"
"-0.164795,-1.103882,0.004150,-2.441406,12.023925,93.749992"
"-0.162720,-0.972778,0.057007,-12.817382,17.333984,96.130363"
"-0.105591,-1.043823,0.006592,-25.878904,21.911619,94.482414"
"-0.059082,-1.143066,-0.034668,-29.479979,22.949217,100.036613"
"-0.055176,-1.117676,-0.027832,-3.845215,18.371582,113.891594"
"-0.035522,-1.080200,0.011230,0.915527,18.249512,117.187492"
"-0.012329,-1.091431,0.036865,18.859863,19.226074,124.511711"
"0.003906,-1.035645,0.026001,24.414061,21.423338,133.850098"
"0.054077,-0.999634,-0.011353,-10.192870,23.803709,133.666992"
"0.078857,-0.950806,-0.027222,-19.165039,23.437498,133.056641"
"0.100952,-0.885986,-0.023926,-20.935057,22.766111,128.112793"
"0.120483,-0.859985,-0.009277,-7.385253,21.057127,119.018547"
"0.184937,-0.867432,-0.011475,-5.371093,21.850584,113.525383"
"0.228882,-0.848755,-0.040283,1.342773,21.484373,105.102531"
"0.243164,-0.815918,-0.048462,7.385253,15.380858,97.839348"
"0.306152,-0.870972,-0.078613,1.159668,7.873535,90.454094"
"0.311157,-0.801025,0.031738,-0.549316,3.662109,89.172356"
"0.380615,-0.843628,0.073853,-11.840819,10.986327,78.491211"
"0.394897,-0.837402,0.002441,0.915527,21.179197,74.279785"
"0.412720,-0.799438,-0.059082,-1.220703,17.944336,72.021484"
"0.470337,-0.924316,-0.050049,-15.502929,11.535644,65.734863"
"0.473877,-0.915405,-0.041016,-0.366211,7.324218,72.753906"
"0.455200,-0.801636,0.074097,5.187988,7.202148,73.547363"
"0.478394,-0.745850,0.109619,-1.403808,13.916015,69.274902"
"0.522217,-0.790894,-0.101929,-11.169433,26.550291,60.729977"
"0.547852,-0.862549,-0.144531,-30.029295,16.967773,59.570309"
"0.566040,-0.890869,-0.013428,-22.155760,10.681151,64.819336"
"0.551025,-0.688354,0.022583,4.394531,9.460449,74.951172"
"0.547119,-0.609131,0.008545,-15.258788,9.887695,65.246582"
"0.563232,-0.630981,0.014648,-6.896972,9.582520,49.011227"
"0.585205,-0.624268,0.015503,3.784179,10.803222,43.395992"
"0.596680,-0.569580,-0.049927,5.981445,14.099120,31.738279"
"0.594849,-0.541870,-0.078125,-2.502441,9.765625,17.028809"
"0.595215,-0.520752,-0.061035,-6.103515,5.798339,8.300781"
"0.608154,-0.585815,-0.088623,-14.892577,1.464844,-9.399414"
"0.612671,-0.626221,-0.072876,-12.878417,-4.394531,-20.568846"
"0.627075,-0.698975,0.004150,-9.094238,-5.249023,-24.902342"
"0.631958,-0.742554,-0.026855,-10.559081,-3.601074,-25.024412"
""
"0.122681,-0.976196,-0.099243,-11.047362,-7.690429,-46.508785"
"0.156006,-1.151733,-0.063232,2.990722,-18.249512,-35.949707"
"0.139282,-1.041016,0.095093,21.606443,-19.897461,-26.672361"
"0.094727,-0.881714,0.143188,20.812986,-10.864257,-21.545408"
"0.075684,-0.855225,0.098633,-1.098633,0.854492,-32.226562"
"0.043335,-0.833374,-0.026001,-0.122070,-0.732422,-44.372555"
"0.016113,-0.806885,-0.055664,1.342773,-4.943848,-50.842281"
"0.049561,-0.979858,-0.069092,-4.760742,-10.314940,-65.124512"
"0.062622,-1.059204,-0.066162,-3.051758,-15.930175,-63.049313"
"0.028931,-1.033081,0.029785,-4.394531,-19.897461,-55.541988"
"-0.002930,-0.978882,0.096313,4.394531,-18.005371,-54.260250"
"-0.021484,-0.946411,0.030518,5.493164,-11.352538,-55.786129"
"-0.031006,-0.958496,-0.002686,-7.019042,-10.803222,-60.058590"
"-0.064697,-1.041382,-0.021851,-17.028809,-11.779784,-60.791012"
"-0.041504,-1.170044,0.009644,-5.432128,-13.488769,-54.748531"
"-0.041870,-1.150757,0.080200,18.005371,-13.305663,-38.146973"
"-0.058838,-1.085205,0.093018,21.606443,-7.873535,-25.207518"
"-0.115967,-0.944580,0.058350,16.906738,-4.760742,-23.681639"
"-0.155884,-0.868408,0.017700,17.272949,-1.403808,-29.357908"
"-0.160034,-0.864258,-0.013550,3.967285,-0.732422,-40.222164"
"-0.140381,-0.923706,-0.046387,2.014160,-2.197266,-44.372555"
"-0.131836,-0.979736,-0.061157,6.774902,-6.164550,-46.752926"
"-0.146484,-0.950928,-0.019409,14.282226,-11.413573,-44.067379"
"-0.166138,-0.894287,0.008911,17.333984,-12.634276,-44.738766"
"-0.194336,-0.847290,0.015137,13.671874,-10.559081,-49.194332"
"-0.212402,-0.875488,-0.039185,13.183593,-6.591796,-59.020992"
"-0.214722,-0.905029,-0.076538,7.995605,-8.361816,-65.246582"
"-0.200806,-1.040283,-0.121704,2.502441,-10.803222,-65.795898"
"-0.194580,-1.154053,-0.062744,5.249023,-17.517090,-57.067867"
"-0.218384,-1.155151,0.053711,13.610839,-19.042969,-40.344234"
"-0.237671,-1.132935,0.082764,12.084960,-8.422852,-25.634764"
"-0.275879,-1.049316,0.045044,9.826660,-2.075195,-19.714355"
"-0.298218,-0.980591,-0.078491,7.202148,4.577637,-13.305663"
"-0.310181,-0.951660,-0.124634,9.704590,0.671387,-11.901855"
"-0.309814,-0.916016,-0.121216,17.028809,-6.713867,-12.023925"
"-0.305664,-0.871338,-0.061523,13.977050,-8.972168,-13.366698"
"-0.283813,-0.926514,-0.010742,-5.676269,-8.850098,-18.005371"
"-0.261353,-1.004272,-0.019409,-10.253905,-4.028320,-17.639160"
"-0.260010,-1.012573,-0.049194,-4.333496,0.427246,-11.779784"
"-0.278809,-0.992798,-0.110229,-1.831055,0.244141,-9.094238"
"-0.294067,-0.981445,-0.044189,2.868652,-5.126953,-5.310058"
"-0.291626,-1.031250,0.012207,-2.990722,-3.051758,-2.197266"
"-0.281250,-1.077637,-0.025146,-6.286621,4.028320,5.554199"
"-0.272705,-1.120361,-0.078369,-4.699707,4.638672,12.145995"
"-0.292603,-1.031738,-0.060303,4.821777,1.831055,26.245115"
"-0.298340,-0.995239,-0.054199,1.098633,0.976562,32.836914"
"-0.283203,-0.991943,-0.071533,-1.159668,1.098633,34.545898"
"-0.264404,-0.990234,-0.041016,-0.366211,-0.671387,38.696289"
"-0.246216,-1.015381,-0.020752,-7.263183,1.953125,42.114254"
"-0.210815,-1.124634,-0.024902,-16.906738,7.873535,51.513668"
"-0.202637,-1.167114,-0.018921,-15.258788,9.338379,59.814449"
"-0.226685,-1.076904,0.006348,-5.065917,11.657714,75.500488"
"-0.232666,-1.029175,0.009033,-10.375976,14.221190,81.665031"
"-0.212769,-0.953247,-0.010620,-14.587401,14.892577,81.542961"
"-0.171509,-0.963623,-0.048096,-23.498533,15.930175,78.002930"
"-0.145874,-0.993164,-0.057983,-27.038572,14.404296,76.721191"
"-0.099976,-1.052368,-0.055298,-25.695799,12.512206,80.993645"
"-0.059204,-1.097534,-0.032715,-20.690916,11.657714,84.594719"
"-0.033569,-1.103638,-0.010620,-4.638672,9.460449,94.116203"
"-0.031372,-1.062378,0.006104,13.061522,6.713867,104.492180"
"-0.018677,-1.010132,0.013916,8.972168,7.080078,106.384270"
"0.013184,-1.052612,0.084595,-11.169433,8.789063,107.116692"
"0.039185,-1.057495,0.125488,-17.578125,19.531250,111.022942"
"0.064087,-1.008301,0.084351,-24.658201,27.221678,112.670891"
"0.111938,-1.062744,0.015137,-35.522461,35.766602,112.426750"
"0.135742,-1.089233,-0.025269,-4.333496,33.325195,120.422356"
"0.126831,-0.956055,-0.080200,14.404296,20.141600,130.493164"
"0.114136,-0.742310,0.075928,16.113281,15.747069,126.647942"
"0.208496,-0.774048,0.007813,23.559568,24.963377,104.919426"
"0.246582,-0.813110,-0.061768,-6.225585,24.536131,88.500969"
"0.314575,-0.939941,-0.054199,-24.230955,19.226074,84.472649"
"0.351074,-0.945190,-0.091431,-18.615723,12.878417,86.975090"
"0.346313,-0.899170,-0.084229,10.314940,1.464844,91.918938"
"0.324829,-0.751343,0.148926,19.226074,5.371093,82.763664"
"0.399170,-0.760620,0.039795,9.216309,20.080564,73.486328"
"0.422974,-0.758179,-0.113647,3.295898,24.230955,62.866207"
"0.440552,-0.770996,-0.081909,-21.362303,7.690429,54.504391"
"0.487793,-0.878540,-0.052734,-33.630371,5.859375,51.330563"
"0.484985,-0.840210,-0.021118,-26.123045,3.479004,54.748531"
"0.478516,-0.779541,0.060059,5.004883,-0.854492,55.969234"
"0.488525,-0.687744,0.116211,15.258788,12.207030,46.325680"
"0.520508,-0.740845,-0.055298,-0.061035,17.211914,39.794922"
"0.539307,-0.803711,-0.096680,-20.874022,9.826660,35.156250"
"0.538208,-0.767944,-0.008423,-12.756347,2.014160,36.315918"
"0.549561,-0.742065,0.052002,-18.920898,4.150391,33.325195"
"0.559814,-0.722046,0.028809,-28.442381,9.765625,28.015135"
"0.556030,-0.690918,-0.005859,-12.634276,10.070800,22.705076"
"0.550781,-0.641724,-0.048584,-1.342773,7.202148,17.883301"
"0.548218,-0.620117,-0.041870,13.671874,-0.122070,6.103515"
"0.546997,-0.625244,-0.023804,3.906250,-4.638672,-7.507324"
"0.576416,-0.749146,0.029175,-19.775391,-3.967285,-16.296387"
"0.597412,-0.838257,0.049927,-23.071287,-2.258301,-14.404296"
"0.574585,-0.744751,0.014893,-19.592285,1.892090,-8.544922"
"0.561279,-0.717285,-0.013306,-20.751951,2.441406,-12.573241"
"0.541870,-0.699219,-0.036133,-16.540527,-0.122070,-16.601562"
"0.528320,-0.700806,0.000244,-4.760742,-6.225585,-26.123045"
"0.528687,-0.710815,0.027954,-3.234863,-7.507324,-35.644531"
"0.522461,-0.752808,0.022949,-3.906250,-6.164550,-42.236324"
"0.524414,-0.812134,0.041748,-5.065917,-7.934570,-43.090816"
"0.518311,-0.814209,0.036743,0.427246,-9.216309,-41.687008"
"0.511108,-0.813843,0.014893,0.000000,-9.826660,-41.198727"
"0.485962,-0.798706,-0.024536,2.685547,-11.718749,-41.809078"
"0.465332,-0.813965,-0.002930,5.920410,-18.127441,-45.410152"
"0.448242,-0.854492,0.060669,4.028320,-22.277830,-48.583981"
"0.450195,-0.897217,0.104126,-10.559081,-18.310547,-49.682613"
"0.475952,-1.014893,0.125854,-10.375976,-8.361816,-42.053219"
"0.445923,-0.950684,0.053955,2.868652,-6.225585,-35.400391"
"0.398438,-0.827881,0.032959,20.385740,-7.446289,-31.311033"
"0.381348,-0.800903,0.016235,19.958496,-8.789063,-39.062500"
"0.354736,-0.775757,0.036865,17.089844,-11.718749,-43.579098"
"0.358032,-0.836304,0.060059,7.690429,-14.160155,-53.100582"
"0.364014,-0.870605,0.044556,4.760742,-12.023925,-57.250973"
"0.345703,-0.859009,0.043945,6.896972,-12.451171,-58.166500"
"0.326538,-0.879761,0.030884,3.417969,-12.451171,-60.363766"
"0.297974,-0.866699,0.047241,6.958007,-14.282226,-64.208984"
"0.296997,-0.887817,0.054321,2.441406,-13.610839,-69.702148"
"0.277710,-0.939453,0.029785,4.821777,-14.343261,-69.763184"
"0.242187,-0.947266,0.034912,7.629394,-16.296387,-68.786621"
"0.208740,-0.901733,0.049561,17.761230,-14.282226,-70.373535"
"0.187012,-0.926758,0.001709,7.324218,-12.939452,-76.782227"
"0.190308,-1.059082,0.038574,0.976562,-18.310547,-74.645996"
"0.205444,-1.146606,0.107544,1.159668,-18.249512,-62.866207"
"0.153442,-1.039307,0.059692,18.127441,-9.643555,-49.743649"
"0.121094,-0.969238,0.039673,20.507811,-9.155273,-48.278805"
"0.078369,-0.883789,0.014771,17.639160,-9.521484,-52.124020"
"0.059204,-0.901245,-0.025879,7.934570,-11.047362,-62.072750"
"0.075806,-1.006470,-0.018433,-11.535644,-15.380858,-67.932129"
"0.121948,-1.204834,0.046997,5.798339,-16.174316,-52.001949"
""
"-0.291870,-1.202271,0.009521,-7.995605,-0.549316,33.691406"
"-0.303711,-1.138794,0.019653,4.333496,2.380371,54.260250"
"-0.322632,-0.984131,0.016602,4.760742,4.699707,59.631344"
"-0.286377,-1.014038,-0.025146,-9.399414,11.169433,61.096188"
"-0.263062,-1.069946,-0.036377,-16.479492,13.610839,66.406250"
"-0.238037,-1.123291,-0.040771,-10.192870,14.648437,79.467773"
"-0.234985,-1.073608,-0.041748,-5.493164,14.648437,85.876457"
"-0.222046,-1.011963,-0.031006,-4.150391,14.038085,93.322746"
"-0.216797,-0.966919,-0.034668,13.061522,10.498046,94.970695"
"-0.180054,-0.980469,-0.022827,17.639160,7.263183,94.116203"
"-0.102905,-1.057495,-0.009277,13.488769,5.371093,95.581047"
"-0.069946,-1.151245,0.001221,-30.029295,12.390136,99.548332"
"-0.059204,-1.175293,0.036255,-7.385253,17.028809,117.248528"
"-0.082275,-1.016479,0.074829,-1.892090,19.958496,123.229973"
"-0.069092,-0.890259,-0.004395,23.010252,27.893064,123.657219"
"-0.050781,-0.844360,-0.091919,27.770994,29.907225,113.952629"
"0.061646,-1.015747,-0.189697,7.446289,27.038572,106.567375"
"0.136475,-1.240967,-0.123901,-17.944336,16.174316,109.008781"
"0.167480,-1.322388,-0.052490,-28.259275,11.291503,132.141113"
"0.164795,-1.345581,0.124634,-26.794432,15.014647,149.291992"
"0.053345,-0.779907,0.209595,64.086914,24.353025,182.495102"
"0.091431,-0.680664,0.114868,44.433590,40.222164,162.780746"
"0.253906,-1.078491,-0.141357,-15.075683,39.611816,150.390625"
"0.218994,-0.799072,-0.209351,27.465818,27.587889,162.170395"
"0.242065,-0.419067,-0.177612,44.738766,7.019042,154.113770"
"0.321167,-0.530640,-0.159180,-40.710445,4.028320,106.079094"
"0.401367,-0.682373,-0.026245,-42.602535,1.708984,94.726555"
"0.416626,-0.538940,0.097412,-6.591796,3.112793,83.068840"
"0.439697,-0.532959,0.054565,-14.587401,21.911619,58.288570"
"0.544678,-0.778809,-0.170166,-32.104492,23.071287,44.189449"
"0.542114,-0.739746,-0.124756,-13.488769,13.488769,47.363277"
"0.536133,-0.605591,-0.089111,-5.554199,7.019042,43.945309"
"0.538940,-0.603149,-0.098999,-31.311033,8.605957,26.794432"
"0.562378,-0.684937,-0.141846,-48.156734,4.882812,13.061522"
"0.598999,-0.838867,-0.077148,-36.743164,0.488281,11.230468"
"0.604248,-0.833740,-0.028320,7.568359,-0.915527,19.470215"
"0.613647,-0.838867,-0.068604,-3.479004,5.554199,27.038572"
"0.593262,-0.729614,-0.072510,-3.356933,4.455566,31.372068"
"0.550049,-0.518311,-0.074341,-3.723144,2.624511,28.991697"
"0.537476,-0.458008,-0.085449,-12.756347,1.953125,5.615234"
"0.541504,-0.458252,-0.124146,-23.559568,0.732422,-9.094238"
"0.581909,-0.677734,-0.146729,-41.870113,-5.249023,-33.569336"
"0.601196,-0.809937,-0.028809,-19.592285,-14.770507,-36.682129"
"0.603882,-0.821167,0.025146,-21.850584,-14.587401,-29.357908"
"0.584961,-0.789307,0.079224,-26.550291,-12.268065,-26.367186"
"0.550415,-0.723511,0.079712,-10.864257,-6.958007,-25.695799"
"0.554321,-0.758667,0.007690,-13.916015,1.098633,-33.264160"
"0.543335,-0.790283,-0.110718,11.291503,-7.812500,-34.790039"
"0.522583,-0.776855,-0.024414,21.484373,-15.014647,-37.048340"
"0.527466,-0.855835,0.050171,18.127441,-7.507324,-42.053219"
"0.507812,-0.835937,0.015747,15.014647,-0.976562,-42.053219"
"0.500610,-0.823975,0.053589,4.760742,-2.380371,-42.358395"
"0.476440,-0.789062,-0.048096,0.610352,-1.098633,-40.222164"
"0.447266,-0.741577,-0.053711,2.746582,-7.690429,-43.762203"
"0.428955,-0.719360,-0.037720,12.939452,-13.671874,-55.358883"
"0.417847,-0.728638,-0.030396,5.126953,-12.390136,-70.190430"
"0.412354,-0.819824,-0.047241,5.065917,-13.183593,-74.462891"
"0.405273,-0.872925,0.019653,6.774902,-16.906738,-76.477051"
"0.400635,-0.897949,0.022583,0.732422,-14.343261,-74.829102"
"0.372925,-0.920044,0.001465,-7.446289,-13.488769,-73.425293"
"0.363281,-0.997192,0.036987,-28.686522,-13.122558,-72.082520"
"0.336670,-0.955322,0.038452,4.638672,-10.803222,-64.575195"
"0.268799,-0.839600,0.055054,1.770019,-6.042480,-70.373535"
"0.256836,-0.928467,-0.005005,-5.798339,-4.089355,-75.378418"
"0.256104,-1.025879,0.000610,-11.108397,-1.220703,-80.566399"
"0.265259,-1.126587,-0.051636,-16.235352,-5.187988,-75.378418"
"0.243042,-1.124878,-0.025879,-3.723144,-12.878417,-62.133785"
"0.181396,-0.908325,0.041748,23.132322,-15.014647,-44.128414"
"0.128662,-0.791870,0.058350,21.972654,-9.094238,-53.588863"
"0.107056,-0.768555,0.048218,13.366698,-5.676269,-71.289062"
"0.083252,-0.819458,-0.009888,6.225585,-5.065917,-80.749504"
"0.145752,-1.145752,-0.061279,-25.878904,-6.835937,-95.520012"
"0.184448,-1.336182,-0.038818,-32.287598,-13.427733,-79.467773"
"0.144653,-1.207031,0.026611,37.902832,-18.371582,-41.503902"
"0.041870,-0.879272,0.096436,34.301758,-17.150879,-37.902832"
"-0.020142,-0.817749,0.058594,12.268065,-8.728027,-52.551266"
"-0.040161,-0.781250,0.022949,15.930175,-3.417969,-70.068359"
"-0.052002,-0.812622,-0.031006,11.840819,-2.502441,-79.895020"
"0.029297,-1.153442,-0.110596,-25.573729,-3.295898,-94.421379"
"0.084717,-1.449951,-0.041992,-52.246090,-13.732909,-76.965332"
"0.039795,-1.288940,0.045288,30.944822,-23.254393,-33.020020"
"-0.083740,-0.898437,0.172363,35.705566,-18.615723,-26.489256"
"-0.135498,-0.847900,0.046021,5.493164,-0.976562,-38.574219"
"-0.146729,-0.845337,-0.021851,14.282226,1.098633,-52.124020"
"-0.152100,-0.831421,-0.056885,15.747069,-3.234863,-63.781734"
"-0.138794,-0.957397,-0.096924,5.126953,-5.859375,-69.274902"
"-0.083374,-1.224487,-0.078613,-10.925292,-12.573241,-69.946289"
"-0.090576,-1.205078,-0.038208,13.305663,-19.775391,-46.691891"
"-0.163208,-0.978882,0.110718,17.883301,-20.507811,-38.574219"
"-0.217285,-0.855957,0.087280,18.371582,-7.629394,-40.527340"
"-0.236084,-0.865723,-0.033691,10.864257,4.760742,-52.856441"
"-0.237915,-0.878418,-0.063843,13.549804,2.624511,-61.157223"
"-0.218872,-0.975708,-0.125244,8.605957,-0.366211,-64.086914"
"-0.203613,-1.095703,-0.154053,0.061035,-9.643555,-60.668941"
"-0.252563,-0.963501,-0.002075,21.606443,-22.766111,-46.691891"
"-0.270630,-0.917358,0.052979,20.690916,-18.798828,-45.349117"
"-0.296753,-0.897949,0.035278,13.854980,-12.023925,-47.668453"
"-0.300049,-0.949097,-0.060547,-0.610352,-2.929687,-52.001949"
"-0.299438,-0.978394,-0.101929,7.812500,-4.577637,-50.415035"
"-0.315308,-0.954346,-0.148804,12.817382,-12.207030,-45.166012"
"-0.358887,-0.872803,-0.094238,29.541014,-20.812986,-45.043941"
"-0.371826,-0.854858,-0.015381,21.545408,-19.104004,-49.133297"
"-0.368042,-0.940796,-0.072266,-6.652832,-9.521484,-55.908199"
"-0.368042,-0.948608,-0.100952,-9.460449,-10.498046,-53.039547"
"-0.383423,-0.963257,-0.093872,-13.427733,-14.038085,-49.560543"
"-0.388794,-0.991089,-0.067871,-3.479004,-14.404296,-45.776363"
"-0.405884,-0.959595,-0.043823,7.568359,-13.427733,-36.254883"
"-0.416260,-0.941162,-0.036865,8.544922,-9.277344,-31.372068"
"-0.429321,-0.926025,-0.068481,5.920410,-5.737304,-30.639647"
"-0.432495,-0.949585,-0.106689,1.892090,-2.746582,-28.259275"
"-0.431641,-0.940918,-0.104492,1.464844,-6.042480,-21.484373"
"-0.431641,-0.931274,-0.092529,1.464844,-7.446289,-16.601562"
"-0.442139,-0.925415,-0.043335,-1.159668,-6.591796,-15.014647"
"-0.441162,-0.964478,-0.057373,-9.216309,-2.075195,-10.498046"
"-0.420532,-1.062134,-0.109253,-13.427733,0.610352,-1.342773"
"-0.416382,-1.091919,-0.114136,-3.845215,-1.220703,14.587401"
"-0.436523,-1.011353,-0.058228,3.295898,-1.464844,27.465818"
"-0.444458,-0.970581,-0.036621,1.525879,1.831055,30.639647"
"-0.447998,-0.908203,-0.066406,4.455566,5.371093,36.865234"
"-0.431885,-0.923462,-0.079712,-7.263183,4.882812,39.184570"
"-0.402710,-0.970093,-0.097290,-6.408691,4.333496,41.137691"
"-0.387207,-0.954102,-0.067627,2.441406,2.624511,47.790524"
"-0.372925,-1.010132,-0.086548,-3.356933,6.774902,51.818844"
"-0.380005,-0.984619,-0.101563,12.207030,4.333496,60.302731"
"-0.401123,-0.854858,-0.091919,28.869627,0.976562,62.988277"
"-0.383667,-0.797119,-0.081909,29.602049,-0.732422,56.884762"
"-0.362183,-0.833252,-0.083740,-0.549316,1.525879,45.532223"
"-0.309204,-0.909912,-0.079468,-2.929687,2.136230,41.870113"
""
"0.579712,-0.626709,0.104858,-29.235838,-3.662109,21.789549"
"0.586426,-0.602783,0.153564,-35.278320,10.986327,11.230468"
"0.621094,-0.621094,-0.056030,-33.691406,21.301268,0.610352"
"0.620117,-0.612915,-0.174316,-22.949217,13.427733,-1.953125"
"0.600952,-0.570801,-0.068115,2.197266,-5.004883,-8.789063"
"0.592896,-0.582886,-0.039063,10.131835,-8.178711,-21.423338"
"0.612793,-0.749756,-0.001709,-10.925292,-6.042480,-29.235838"
"0.651001,-0.909668,0.038086,-17.822266,-3.845215,-25.817869"
"0.619873,-0.792847,-0.004639,-11.718749,0.549316,-10.864257"
"0.589111,-0.703857,-0.027832,-7.934570,0.610352,-9.460449"
"0.571045,-0.678711,-0.032593,-0.061035,-0.671387,-21.728514"
"0.561279,-0.708008,-0.032959,8.483887,-1.953125,-25.573729"
"0.567261,-0.776001,0.009277,3.356933,-4.394531,-31.372068"
"0.583984,-0.889771,0.013550,-4.272461,-1.403808,-31.372068"
"0.576416,-0.887817,0.017334,8.117676,0.671387,-21.423338"
"0.539917,-0.770386,0.046875,11.718749,1.770019,-18.676758"
"0.536865,-0.733154,-0.011963,11.474608,7.080078,-26.672361"
"0.527466,-0.764648,-0.095093,4.455566,5.920410,-38.208008"
"0.508423,-0.761841,-0.059204,11.962890,-2.441406,-45.104977"
"0.501953,-0.865112,-0.014038,-1.220703,-1.464844,-48.278805"
"0.488037,-0.901611,0.068726,2.624511,-2.075195,-44.799801"
"0.488892,-0.834839,0.013428,11.169433,6.652832,-39.733887"
"0.473755,-0.801514,-0.063232,-0.610352,10.314940,-41.687008"
"0.443237,-0.767334,-0.130737,-1.525879,6.042480,-46.264645"
"0.433838,-0.812988,-0.134888,6.958007,-0.976562,-56.884762"
"0.439087,-0.861328,-0.112549,0.549316,-9.338379,-57.373043"
"0.445312,-0.918335,0.030762,-11.291503,-11.596679,-49.560543"
"0.430542,-0.913452,0.070679,-11.596679,-6.713867,-45.837399"
"0.370117,-0.775513,-0.047974,-4.089355,2.136230,-37.414551"
"0.348145,-0.746338,-0.092896,-14.892577,-2.441406,-42.724606"
"0.343384,-0.850342,-0.099365,-4.516602,-12.451171,-50.781246"
"0.344604,-0.877686,0.075684,5.432128,-16.113281,-52.795406"
"0.366577,-1.030518,0.070190,-2.746582,-3.906250,-59.143063"
"0.365723,-1.064941,0.019775,-1.831055,-0.976562,-46.508785"
"0.335571,-0.958008,-0.009399,3.479004,-0.427246,-34.973145"
"0.264526,-0.793213,-0.098511,6.835937,0.000000,-35.949707"
"0.217651,-0.686157,-0.024536,17.639160,-6.713867,-50.964352"
"0.229492,-0.764893,-0.059204,4.455566,-3.906250,-74.035645"
"0.264038,-1.038818,-0.087036,-9.765625,-13.122558,-73.059082"
"0.293823,-1.179443,0.021973,-8.239746,-15.747069,-63.720699"
"0.254639,-1.068115,0.132202,1.892090,-10.070800,-41.137691"
"0.228394,-0.944702,0.115967,10.681151,4.699707,-30.700682"
"0.182617,-0.745728,0.004272,-1.525879,11.230468,-45.959469"
"0.078003,-0.728149,-0.114868,-5.004883,8.483887,-59.326168"
"0.079224,-1.075806,-0.122803,-28.564451,-5.310058,-85.144035"
"0.124756,-1.284790,-0.083008,-11.901855,-16.357422,-80.383293"
"0.161133,-1.305908,0.056763,16.967773,-18.981934,-64.575195"
"0.129761,-1.038818,0.161499,36.560059,-12.573241,-38.757324"
"0.100586,-0.934204,0.120361,6.225585,4.821777,-37.658691"
"0.031982,-0.804932,-0.033569,0.061035,8.789063,-48.767086"
"-0.014160,-0.720215,-0.096313,6.469726,6.286621,-57.373043"
"0.010742,-0.927124,-0.177490,-2.990722,1.586914,-78.308105"
"0.047607,-1.149536,-0.191650,-22.705076,-10.070800,-81.970207"
"0.077515,-1.321899,-0.063232,23.742674,-19.042969,-52.368160"
"-0.003540,-1.006714,0.060181,35.339355,-16.784668,-40.344234"
"-0.080811,-0.812622,0.092407,16.662598,-6.774902,-40.710445"
"-0.097412,-0.803223,0.030762,-6.408691,5.249023,-57.312008"
"-0.123291,-0.827393,-0.058594,-1.586914,0.366211,-71.105957"
"-0.120728,-0.926880,-0.095459,-2.014160,-2.990722,-77.636719"
"-0.068359,-1.231934,-0.158813,-14.282226,-7.995605,-82.458488"
"-0.067261,-1.238647,-0.105347,11.230468,-20.568846,-59.997555"
"-0.123535,-1.021484,0.086548,29.846189,-19.104004,-45.410152"
"-0.194336,-0.868164,0.089722,21.972654,-11.047362,-46.447750"
"-0.223511,-0.847168,-0.030029,5.249023,2.868652,-56.335445"
"-0.231201,-0.825684,-0.077759,5.981445,0.854492,-66.528320"
"-0.245850,-0.871216,-0.119751,4.699707,-2.807617,-72.204590"
"-0.225220,-1.070435,-0.111572,-1.403808,-7.995605,-78.063965"
"-0.212036,-1.160034,-0.065918,-0.183105,-12.451171,-67.382812"
"-0.222290,-1.142090,-0.014893,6.408691,-12.145995,-50.842281"
"-0.278442,-0.981689,-0.016602,15.014647,-9.582520,-43.334957"
"-0.316162,-0.883057,-0.073486,8.544922,-5.432128,-40.954586"
"-0.312622,-0.899902,-0.069458,4.333496,-6.408691,-47.302242"
"-0.306763,-0.959351,-0.089233,2.258301,-4.699707,-46.997066"
"-0.281860,-1.064819,-0.102417,4.760742,-4.638672,-44.799801"
"-0.285156,-1.139404,-0.092285,7.385253,-5.432128,-32.348633"
"-0.295410,-1.141602,-0.067261,12.634276,-7.934570,-14.953612"
"-0.329956,-1.054810,0.019531,16.296387,-7.812500,-6.652832"
"-0.363159,-0.939209,-0.022827,12.023925,-0.610352,3.479004"
"-0.359863,-0.947876,-0.125610,-2.990722,4.821777,2.746582"
"-0.343262,-1.014404,-0.137329,-7.019042,1.647949,3.234863"
"-0.309814,-1.137329,-0.084106,-3.906250,-0.671387,8.117676"
"-0.307251,-1.139038,-0.020508,5.187988,-0.427246,24.963377"
"-0.313599,-1.108887,-0.002930,5.004883,5.126953,41.015621"
"-0.336670,-1.005737,-0.027588,2.807617,11.047362,49.621578"
"-0.350586,-0.913574,-0.106323,-0.610352,11.596679,49.743649"
"-0.324829,-0.953369,-0.127930,-7.324218,7.507324,45.898434"
"-0.293091,-1.040039,-0.109253,-8.605957,2.197266,46.997066"
"-0.235352,-1.174927,-0.069702,-3.723144,1.037598,53.283688"
"-0.209717,-1.183105,-0.063843,-4.333496,3.112793,71.655273"
"-0.213257,-1.147827,-0.055542,-5.676269,6.469726,89.172356"
"-0.233032,-1.035400,-0.035767,-6.042480,8.666992,97.351067"
"-0.214600,-1.012695,-0.018799,-6.713867,10.437011,97.778313"
"-0.173828,-1.042236,-0.071045,-1.647949,15.075683,99.426262"
"-0.146851,-1.066895,-0.097778,-18.249512,16.357422,104.492180"
"-0.069946,-1.215698,-0.109863,-29.235838,16.540527,108.947746"
"-0.060303,-1.213989,-0.100220,-33.813477,15.075683,127.746574"
"-0.068726,-1.057129,0.015869,-23.498533,10.681151,145.935059"
"-0.075195,-0.945679,0.065674,10.803222,13.549804,150.634766"
"-0.041260,-0.829346,0.078369,11.657714,17.944336,143.310547"
"0.074829,-1.073120,-0.009766,-18.615723,30.639647,124.755852"
"0.108887,-1.144653,-0.078003,-15.197753,32.592773,135.314941"
"0.136475,-1.120361,-0.116211,-17.333984,21.850584,153.076172"
"0.109619,-0.788452,-0.034424,-5.249023,18.371582,156.433105"
"0.130127,-0.675049,-0.054321,12.878417,18.798828,138.549805"
"0.206909,-0.651367,-0.130249,-2.136230,9.948730,108.825676"
"0.296143,-0.844604,-0.044678,-9.399414,4.150391,98.510735"
"0.352051,-0.899048,0.042236,0.732422,4.943848,94.299309"
"0.369995,-0.875732,0.024170,1.281738,15.014647,96.252434"
"0.405640,-0.862427,-0.003784,-8.239746,16.723633,96.191399"
"0.405273,-0.742432,-0.048462,-5.554199,15.686034,95.336906"
"0.439941,-0.710449,-0.115967,0.122070,11.291503,83.007805"
"0.464111,-0.758789,-0.068970,-5.249023,3.112793,69.519043"
"0.481201,-0.736450,0.102905,0.610352,3.967285,66.711426"
"0.529053,-0.768311,-0.028198,-16.296387,19.226074,57.861324"
"0.546143,-0.812744,-0.113525,-32.958984,17.761230,53.588863"
"0.559204,-0.817505,-0.075317,-33.813477,6.103515,55.236813"
"0.576538,-0.812622,0.013184,-30.090330,5.249023,56.884762"
"0.545044,-0.618652,0.101563,0.061035,7.385253,60.119625"
"0.555298,-0.585449,0.053467,-0.183105,19.287109,45.776363"
"0.577271,-0.546265,-0.103516,-0.061035,20.202635,38.146973"
"0.582886,-0.497192,-0.123901,-5.554199,9.826660,20.812986"
"0.603760,-0.580078,-0.108521,-17.944336,0.488281,1.098633"
"0.635742,-0.703491,0.054077,-10.620116,-2.502441,0.183105"
"0.630981,-0.667358,0.050537,-14.343261,6.164550,1.281738"
"0.625122,-0.616577,-0.045532,-12.817382,9.460449,-0.793457"
"0.618774,-0.596924,-0.125122,-2.502441,6.713867,-7.934570"
"0.612305,-0.618652,-0.108521,2.685547,-1.586914,-17.944336"
"0.612427,-0.645142,-0.098389,0.732422,-5.615234,-26.367186"
""
"0.164795,-0.921753,0.036499,12.817382,-2.868652,-30.883787"
"0.141479,-0.885742,-0.016479,6.408691,1.220703,-36.437988"
"0.092529,-0.810425,-0.056396,9.460449,-3.601074,-49.926754"
"0.089478,-0.897095,-0.082764,7.812500,-4.943848,-58.532711"
"0.125610,-1.135498,-0.090942,-3.173828,-10.498046,-65.979004"
"0.143799,-1.203491,-0.040161,12.145995,-17.639160,-51.330563"
"0.129883,-1.118530,0.065063,23.132322,-13.732909,-32.226562"
"0.064941,-0.931885,0.090942,19.470215,-8.483887,-28.930662"
"0.028931,-0.879761,-0.048584,1.953125,2.563476,-35.339355"
"0.015503,-0.867065,-0.109375,4.211426,-1.403808,-46.203609"
"-0.001343,-0.869385,-0.111328,6.347656,-7.263183,-52.185055"
"0.030029,-1.062012,-0.097900,-3.173828,-13.549804,-62.805172"
"0.056152,-1.187378,-0.005493,3.601074,-17.761230,-54.687496"
"0.039673,-1.119629,0.049316,23.620604,-15.502929,-35.156250"
"-0.022095,-0.925537,0.070923,21.301268,-10.314940,-31.738279"
"-0.068237,-0.831177,-0.027832,5.310058,1.037598,-38.635254"
"-0.097534,-0.798096,-0.060303,5.249023,0.244141,-53.344723"
"-0.152954,-0.749146,-0.076538,6.774902,-2.563476,-62.988277"
"-0.123901,-0.936890,-0.110474,6.408691,-4.943848,-84.533684"
"-0.060425,-1.260010,-0.131836,-11.169433,-9.826660,-87.036125"
"-0.069336,-1.239746,-0.080200,27.832029,-20.202635,-60.485836"
"-0.150635,-0.972412,0.048096,38.085937,-20.690916,-51.391598"
"-0.215332,-0.840210,0.007324,19.348145,-9.765625,-54.626461"
"-0.232300,-0.834106,-0.046143,10.803222,-2.258301,-68.664551"
"-0.244507,-0.847290,-0.117310,11.535644,-3.662109,-79.711914"
"-0.221436,-1.012451,-0.184326,5.187988,-5.004883,-83.618156"
"-0.168701,-1.275879,-0.173340,-5.249023,-11.962890,-78.063965"
"-0.185181,-1.239380,-0.109497,21.240232,-23.803709,-49.316402"
"-0.268066,-0.961914,0.055298,11.657714,-18.798828,-37.231445"
"-0.317993,-0.867065,-0.010132,-2.807617,-9.094238,-40.466305"
"-0.311646,-0.919922,-0.162354,-10.803222,0.854492,-48.828121"
"-0.311401,-0.921631,-0.179077,7.568359,-7.507324,-49.438473"
"-0.315430,-0.915894,-0.158325,13.000487,-11.901855,-49.743649"
"-0.301758,-1.006958,-0.051147,13.305663,-17.333984,-49.316402"
"-0.306763,-1.061157,-0.010254,5.981445,-10.864257,-41.137691"
"-0.325195,-1.014160,-0.016479,6.225585,-4.272461,-29.174803"
"-0.354126,-0.961792,-0.066040,3.662109,-2.075195,-26.794432"
"-0.372803,-0.956787,-0.116455,1.708984,0.244141,-24.047850"
"-0.375000,-0.958008,-0.140625,5.615234,1.281738,-21.179197"
"-0.373779,-0.953979,-0.179565,12.145995,0.061035,-19.226074"
"-0.357788,-0.982422,-0.117676,17.456055,-5.310058,-15.380858"
"-0.341675,-1.031006,-0.090698,3.479004,-4.211426,-9.094238"
"-0.348511,-1.023682,-0.069092,1.953125,-0.122070,3.173828"
"-0.378174,-0.920410,-0.113647,-2.685547,2.441406,6.408691"
"-0.400391,-0.894409,-0.166260,-6.774902,2.807617,6.286621"
"-0.385986,-0.933105,-0.159180,-4.211426,-0.976562,6.347656"
"-0.344604,-1.069824,-0.125366,-7.019042,-1.403808,8.911133"
"-0.328247,-1.129639,-0.092163,-6.896972,-0.427246,22.216795"
"-0.346436,-1.055664,-0.080322,3.295898,2.258301,39.489746"
"-0.343262,-1.073853,-0.107178,-10.314940,7.385253,48.950191"
"-0.328491,-1.126953,-0.136719,-11.474608,6.164550,55.358883"
"-0.325684,-1.080688,-0.082764,-6.042480,0.488281,71.533203"
"-0.321411,-1.060181,-0.070435,-13.427733,3.723144,82.214348"
"-0.283203,-1.127075,-0.103394,-28.869627,9.643555,91.735832"
"-0.256592,-1.177734,-0.110352,-23.010252,10.009766,100.219719"
"-0.244873,-1.112305,-0.059082,-5.432128,7.934570,117.248528"
"-0.234741,-1.086670,-0.052856,-11.474608,10.681151,126.708977"
"-0.204956,-1.077393,-0.078247,-19.226074,11.779784,129.882812"
"-0.158569,-1.139771,-0.066650,-41.381832,11.413573,136.474609"
"-0.140869,-1.050049,0.029785,-29.235838,13.549804,147.155762"
"-0.138550,-0.960327,0.037964,-22.521971,24.658201,148.620605"
"-0.088623,-0.957886,-0.034302,-35.217285,30.151365,142.944336"
"-0.020996,-1.031250,-0.100098,-35.278320,32.226562,137.084961"
"-0.020874,-0.932983,-0.088257,16.235352,19.714355,142.578125"
"0.020508,-0.807007,0.027588,3.051758,21.179197,127.075188"
"0.118042,-0.963257,-0.013550,-18.798828,27.160643,119.384758"
"0.128052,-0.968140,-0.020142,-23.925779,28.381346,117.370598"
"0.174072,-0.905762,-0.017822,-1.586914,27.954100,114.379875"
"0.229858,-0.882935,-0.075562,12.512206,26.672361,111.877434"
"0.237671,-0.746826,0.032715,40.954586,18.615723,107.238762"
"0.277710,-0.755127,0.028931,16.296387,26.000975,90.881340"
"0.379883,-0.970337,-0.111572,-9.155273,29.479979,85.388176"
"0.379028,-0.912476,-0.058960,-11.413573,20.446775,95.458977"
"0.368042,-0.782471,-0.037231,-8.117676,16.662598,101.135246"
"0.403687,-0.748413,-0.107300,-21.789549,17.028809,94.116203"
"0.432007,-0.800903,-0.049316,-12.451171,8.605957,84.411613"
"0.435303,-0.750732,0.014282,14.648437,6.103515,81.665031"
"0.460693,-0.695312,-0.054687,11.718749,13.427733,69.335937"
"0.480103,-0.690063,-0.077515,9.643555,10.864257,63.171383"
"0.513916,-0.723145,-0.044067,-10.803222,7.385253,51.452633"
"0.534302,-0.758057,-0.091187,-28.198240,11.413573,43.762203"
"0.551758,-0.769775,-0.112549,-28.503416,9.094238,43.334957"
"0.537354,-0.637207,-0.055664,-12.207030,2.868652,42.602535"
"0.543091,-0.604858,-0.040771,3.967285,2.624511,29.479979"
"0.541504,-0.518066,-0.027466,6.835937,5.493164,12.268065"
"0.542236,-0.526978,-0.119019,-6.530761,7.568359,-0.061035"
"0.569946,-0.645996,-0.172852,-27.648924,3.906250,-18.859863"
"0.600708,-0.790283,-0.132568,-11.108397,-7.629394,-15.197753"
"0.584717,-0.732300,-0.026245,-7.080078,-8.850098,-12.695312"
"0.572021,-0.698975,-0.041870,-10.986327,-2.807617,-13.793944"
"0.565308,-0.689697,-0.051880,-14.709472,-3.173828,-18.798828"
"0.539429,-0.675415,-0.031738,-8.422852,-5.187988,-22.521971"
"0.542847,-0.763428,-0.102783,-7.568359,-4.821777,-32.409668"
"0.560303,-0.897583,-0.091553,-4.089355,-10.009766,-35.217285"
"0.557495,-0.895508,-0.026123,11.474608,-14.831542,-26.550291"
"0.532715,-0.841309,0.025146,8.544922,-11.962890,-23.803709"
"0.512573,-0.797119,-0.002075,-2.319336,-5.493164,-23.254393"
"0.503662,-0.783691,-0.027588,-9.826660,-5.310058,-26.733397"
"0.500854,-0.823242,-0.073364,-13.977050,-9.521484,-31.249998"
"0.496338,-0.862671,-0.025757,-10.986327,-12.390136,-30.517576"
"0.474365,-0.806763,0.070190,-1.525879,-13.549804,-28.686522"
"0.470703,-0.804077,0.093140,3.479004,-5.493164,-34.362793"
"0.460815,-0.799927,0.022095,5.493164,0.671387,-40.344234"
"0.442017,-0.793579,-0.056519,4.882812,-0.793457,-43.151852"
"0.427856,-0.802124,-0.056396,10.375976,-8.239746,-49.987789"
"0.422363,-0.827026,-0.052979,7.446289,-13.977050,-55.786129"
"0.434692,-0.947021,-0.005859,1.098633,-15.991210,-56.640621"
"0.418823,-0.953979,0.035645,4.333496,-15.747069,-49.743649"
"0.393555,-0.890625,0.069214,7.995605,-10.559081,-44.250484"
"0.381226,-0.874146,0.021606,1.037598,-2.258301,-45.776363"
"0.331299,-0.792847,-0.043457,3.662109,-6.225585,-52.246090"
"0.298706,-0.767822,-0.036621,3.540039,-9.643555,-58.288570"
"0.300537,-0.928223,-0.043945,-16.418457,-14.648437,-70.678711"
"0.310547,-1.034302,-0.020142,-24.475096,-18.920898,-69.458008"
"0.318604,-1.090332,0.040771,-14.099120,-17.822266,-62.866207"
"0.280762,-0.934204,0.061035,17.395020,-10.314940,-49.987789"
"0.255493,-0.876709,0.044678,3.112793,-5.371093,-51.940914"
"0.230835,-0.924438,-0.006714,-10.803222,-8.178711,-58.715816"
"0.199585,-0.935547,-0.009766,-6.530761,-11.047362,-59.448238"
"0.211914,-0.989258,0.034790,-1.342773,-12.268065,-61.767574"
"0.240601,-1.125488,-0.008911,-36.132812,-2.868652,-64.880371"
"0.251343,-1.283691,0.022827,9.338379,-17.639160,-31.127928"
"0.168823,-0.945435,0.179077,28.076170,-16.967773,-16.235352"
"0.126831,-0.830688,0.085815,10.803222,3.601074,-22.888182"
"0.125977,-0.857910,0.009888,-1.342773,7.019042,-40.283199"
"0.110107,-0.901978,-0.024292,-5.615234,1.464844,-44.372555"
"0.117798,-1.000488,-0.032837,-8.056641,-4.516602,-49.133297"
"0.146118,-1.099121,-0.053833,-7.324218,-6.591796,-45.837399"
""
"-0.315552,-1.021973,-0.108032,2.746582,-1.586914,4.638672"
"-0.246216,-1.337646,-0.098389,-31.921385,-1.525879,13.916015"
"-0.230591,-1.452393,-0.075073,-22.216795,-2.441406,46.508785"
"-0.316406,-1.227661,0.028198,3.234863,-3.173828,68.237305"
"-0.379028,-0.989258,0.077637,6.530761,4.943848,87.768547"
"-0.365723,-0.980591,0.048828,-27.343748,19.042969,86.120598"
"-0.318970,-0.962036,-0.031494,-35.095215,20.141600,88.012688"
"-0.262817,-0.960937,-0.088623,-33.752441,19.042969,86.914055"
"-0.180786,-1.082764,-0.092285,-34.179687,17.089844,85.327141"
"-0.162476,-1.102539,-0.059814,-22.644041,15.380858,96.435539"
"-0.137085,-1.156738,-0.008545,-22.827147,17.883301,101.745598"
"-0.151367,-1.157593,-0.007202,-10.498046,22.155760,116.699211"
"-0.176758,-1.015869,0.044434,26.977537,14.831542,132.812500"
"-0.160400,-0.823242,0.101074,-12.390136,23.132322,120.117180"
"-0.073608,-0.973755,-0.023437,-32.775879,29.235838,110.046379"
"-0.011108,-1.149536,-0.072876,-59.997555,31.433104,104.675285"
"0.040771,-1.288086,-0.041016,-31.616209,25.573729,130.432129"
"0.025635,-1.095337,0.031982,-19.958496,24.963377,141.967773"
"0.027466,-0.966309,0.079712,-1.098633,29.296873,148.681641"
"0.032959,-0.881958,0.089478,25.512693,33.203125,145.812988"
"0.086914,-0.803589,0.027466,-4.028320,34.240723,128.356934"
"0.198975,-0.979736,-0.025635,-24.047850,32.592773,120.300285"
"0.247192,-0.997437,-0.058960,-16.174316,26.611326,121.887199"
"0.251709,-0.920410,-0.069580,9.338379,18.249512,129.028320"
"0.249512,-0.718750,0.055664,8.544922,13.916015,116.577141"
"0.304443,-0.623047,0.119507,16.296387,19.897461,105.163567"
"0.368286,-0.683472,-0.082031,-5.493164,32.104492,79.772949"
"0.406250,-0.763916,-0.127686,-16.052246,20.141600,64.025879"
"0.447998,-0.827637,-0.056274,0.793457,7.995605,63.049313"
"0.458496,-0.769043,0.038208,-8.972168,7.446289,60.607906"
"0.465332,-0.723511,0.111694,-18.249512,10.437011,56.762691"
"0.513916,-0.765747,0.038818,-18.127441,21.667479,46.264645"
"0.518677,-0.750366,-0.038696,2.319336,21.423338,43.029781"
"0.521484,-0.730469,-0.093872,8.666992,15.136718,40.527340"
"0.551270,-0.799927,-0.033447,0.061035,5.432128,33.447266"
"0.558594,-0.821533,0.013062,-9.887695,4.028320,33.874512"
"0.530273,-0.691895,0.087036,-10.864257,5.615234,35.522461"
"0.536865,-0.635864,-0.006714,-21.667479,14.526366,25.756834"
"0.541992,-0.632202,-0.067139,-6.652832,12.084960,11.840819"
"0.550415,-0.649170,-0.080688,4.821777,1.342773,-0.061035"
"0.598633,-0.841064,-0.035278,0.244141,-1.403808,-3.417969"
"0.601807,-0.862671,0.060425,2.380371,-2.990722,5.615234"
"0.582886,-0.768799,0.077271,-2.563476,4.577637,14.343261"
"0.562744,-0.631226,-0.028198,-12.145995,9.643555,11.230468"
"0.553589,-0.586792,-0.135864,-21.057127,8.361816,-2.380371"
"0.547485,-0.589966,-0.116455,-14.587401,-4.211426,-18.615723"
"0.558716,-0.693481,-0.039917,-7.202148,-8.728027,-30.700682"
"0.565186,-0.787231,0.060791,-4.272461,-8.850098,-31.982420"
"0.551758,-0.783447,0.070435,-8.666992,-3.906250,-29.357908"
"0.546753,-0.772217,0.035278,-11.657714,1.159668,-29.846189"
"0.528564,-0.732788,-0.047119,-9.521484,0.427246,-31.311033"
"0.496826,-0.678467,0.008179,3.234863,-8.911133,-38.208008"
"0.488525,-0.707520,0.006226,5.859375,-7.751464,-51.818844"
"0.497192,-0.868896,-0.027954,2.441406,-14.038085,-54.504391"
"0.500977,-0.968384,0.108887,1.220703,-16.723633,-49.682613"
"0.495239,-0.932373,0.142700,2.624511,-7.995605,-37.841797"
"0.481689,-0.894409,0.057739,0.549316,2.807617,-32.775879"
"0.452759,-0.848022,-0.048706,-0.183105,0.183105,-33.142090"
"0.417603,-0.785278,-0.014526,11.169433,-9.826660,-36.621094"
"0.406250,-0.777344,0.014160,7.995605,-13.977050,-45.104977"
"0.428833,-0.927490,0.080688,-8.666992,-12.329101,-46.997066"
"0.438721,-0.996216,0.112793,-7.812500,-8.911133,-41.748043"
"0.409058,-0.903931,0.044434,-1.159668,-1.342773,-31.555174"
"0.387939,-0.852417,0.010498,1.892090,-1.770019,-32.409668"
"0.349976,-0.778809,-0.010132,6.958007,-6.958007,-42.724606"
"0.333496,-0.803955,0.019165,7.446289,-8.911133,-49.377438"
"0.342773,-0.882324,0.025269,-3.173828,-10.192870,-57.800289"
"0.370728,-1.062012,0.035400,-5.920410,-11.047362,-51.086422"
"0.378052,-1.102905,0.088989,0.122070,-11.474608,-42.358395"
"0.315186,-0.875488,0.134033,17.456055,-6.591796,-26.550291"
"0.291382,-0.812012,0.071411,6.591796,5.126953,-33.081055"
"0.246216,-0.800293,-0.034058,2.014160,4.211426,-39.672852"
"0.236938,-0.868774,-0.014038,7.995605,-5.371093,-52.612301"
"0.252319,-0.953125,-0.030640,4.760742,-9.460449,-59.814449"
"0.288452,-1.124756,0.014160,5.187988,-15.747069,-49.865719"
"0.275146,-1.043579,0.121094,14.465331,-13.488769,-41.381832"
"0.213013,-0.868408,0.076538,16.601562,-2.502441,-35.705566"
"0.186890,-0.814209,0.030518,5.920410,1.342773,-43.273922"
"0.153687,-0.776611,-0.060181,6.164550,0.976562,-50.598141"
"0.151001,-0.873779,-0.129028,4.638672,-4.882812,-66.040039"
"0.159058,-0.960205,-0.129761,2.258301,-16.906738,-71.716309"
"0.181885,-1.094116,-0.030518,8.056641,-24.169920,-62.805172"
"0.187622,-1.123535,0.088379,7.080078,-22.583006,-55.480953"
"0.131714,-0.995728,0.092651,6.713867,-12.451171,-42.175289"
"0.091919,-0.922729,0.052734,2.502441,-4.760742,-41.992184"
"0.043945,-0.854858,-0.030273,3.723144,-4.394531,-47.058102"
"0.014893,-0.841064,-0.063110,11.352538,-9.338379,-59.020992"
"0.006714,-0.866821,-0.065674,9.216309,-15.686034,-70.434570"
"0.047852,-1.113525,-0.031372,-5.126953,-19.226074,-70.922852"
"0.078735,-1.235474,0.056274,-1.586914,-19.470215,-60.302731"
"0.017090,-1.038330,0.125854,4.638672,-14.099120,-37.963867"
"-0.005615,-0.969604,0.107056,4.394531,-1.892090,-36.010742"
"-0.058350,-0.883545,0.015259,5.371093,0.366211,-42.297359"
"-0.101318,-0.807495,-0.022339,7.934570,-1.586914,-48.278805"
"-0.105591,-0.845215,-0.096191,11.047362,-4.211426,-64.270020"
"-0.079102,-0.961548,-0.121094,-1.953125,-12.023925,-74.279785"
"-0.038696,-1.156250,-0.054443,1.403808,-17.211914,-70.312500"
"-0.087769,-0.978027,0.071655,30.212400,-20.385740,-52.673336"
"-0.126953,-0.879639,0.070435,12.329101,-12.084960,-52.856441"
"-0.194092,-0.816162,-0.028442,5.371093,-9.399414,-65.734863"
"-0.235352,-0.786987,-0.084839,14.465331,-11.230468,-72.814941"
"-0.249878,-0.845459,-0.131348,15.869140,-16.296387,-88.562004"
"-0.231323,-0.982178,-0.120850,-1.403808,-23.925779,-98.754875"
"-0.202759,-1.170654,-0.021240,4.455566,-27.099607,-93.444817"
"-0.272705,-0.997559,0.061401,15.869140,-26.855467,-73.486328"
"-0.351807,-0.870361,0.004883,14.221190,-17.272949,-72.631836"
"-0.376465,-0.848389,-0.032593,10.437011,-10.620116,-82.153313"
"-0.408203,-0.840576,-0.087158,7.690429,-9.582520,-86.303703"
"-0.399414,-0.910034,-0.144409,-6.286621,-11.657714,-93.200676"
"-0.396362,-0.985474,-0.139771,-16.174316,-21.362303,-92.346184"
"-0.377319,-1.066284,-0.069824,-1.159668,-24.719236,-86.547844"
"-0.387207,-1.037231,0.008057,19.226074,-24.414061,-72.326660"
"-0.429932,-0.973511,0.016724,17.883301,-16.296387,-61.340328"
"-0.449707,-0.952515,-0.023682,11.047362,-6.164550,-54.809566"
"-0.470459,-0.929199,-0.093872,9.643555,-3.967285,-52.673336"
"-0.481567,-0.964600,-0.133423,10.864257,-4.150391,-48.583981"
"-0.490112,-0.960937,-0.140869,12.878417,-7.019042,-40.100098"
"-0.494385,-0.925171,-0.113647,9.704590,-9.582520,-33.081055"
"-0.508057,-0.845703,-0.082275,4.943848,-10.559081,-31.738279"
"-0.510620,-0.828613,-0.087402,-7.446289,-10.192870,-32.409668"
"-0.509766,-0.844116,-0.106934,-21.484373,-8.178711,-33.447266"
"-0.494995,-0.972168,-0.094727,-21.850584,-8.605957,-31.494139"
"-0.463013,-1.086792,-0.045410,-12.145995,-6.469726,-17.578125"
"-0.459717,-1.141602,-0.039185,-4.638672,-0.183105,4.882812"
"-0.508179,-1.089844,-0.054687,12.268065,3.051758,27.709959"
"-0.533936,-0.961914,-0.066284,15.624999,3.967285,34.912109"
"-0.523315,-0.952148,-0.101563,-0.915527,6.469726,41.809078"
"-0.511719,-0.954956,-0.118652,1.037598,5.798339,49.255367"
""
"0.414551,-0.695068,0.050659,-9.887695,11.901855,76.904297"
"0.429199,-0.693481,-0.011475,-20.812986,20.812986,62.011715"
"0.483887,-0.833496,-0.112671,-0.915527,13.244628,55.786129"
"0.494141,-0.797363,-0.029907,5.981445,7.934570,56.518551"
"0.528931,-0.838867,0.017334,-7.690429,7.934570,52.551266"
"0.538696,-0.845947,0.026489,-12.329101,13.183593,53.894039"
"0.524536,-0.701660,-0.015137,-14.404296,17.517090,51.940914"
"0.528564,-0.621094,-0.089355,-13.549804,16.784668,45.410152"
"0.543579,-0.601807,-0.087769,-6.958007,9.399414,30.517576"
"0.548218,-0.598999,-0.056274,-8.239746,2.746582,15.624999"
"0.584351,-0.695190,-0.024292,-13.366698,2.136230,9.216309"
"0.590820,-0.664307,-0.011597,-6.164550,2.075195,5.981445"
"0.590332,-0.665649,-0.088013,-12.451171,4.089355,0.793457"
"0.603149,-0.735474,-0.055908,-17.211914,-1.159668,-4.455566"
"0.603271,-0.744751,0.021240,-8.483887,-0.732422,-2.319336"
"0.570190,-0.595703,-0.061035,-4.516602,5.249023,-2.197266"
"0.560913,-0.607788,-0.133057,-20.690916,2.014160,-17.028809"
"0.561890,-0.649048,-0.111450,-5.493164,-8.300781,-29.846189"
"0.553345,-0.674683,-0.031738,8.544922,-11.474608,-33.264160"
"0.563354,-0.810059,0.027954,-0.671387,-11.901855,-40.100098"
"0.582642,-0.905518,0.067139,-12.756347,-7.751464,-36.437988"
"0.575562,-0.883667,0.037231,0.305176,-2.746582,-22.949217"
"0.520630,-0.771606,0.012939,1.159668,-2.563476,-21.484373"
"0.493530,-0.746216,-0.044556,-5.676269,-1.708984,-28.137205"
"0.486694,-0.750488,-0.058838,-6.042480,-7.690429,-37.414551"
